onset	duration	trial_type	accuracy	response_time	stimA	stimB	stimC	match_posit
4.0	4.93	O-P+	0	1.511	youth	bridge	truth	n/a
8.93	4.93	O-P+	1	0.993	june	term	firm	n/a
13.86	4.93	O+P+	1	0.939	hold	plant	cold	1.0
18.79	4.93	O-P-	1	0.802	client	flung	trick	n/a
23.72	4.93	O+P+	1	0.792	slept	cone	bone	2.0
28.65	4.93	O-P-	1	1.067	fight	look	show	n/a
33.58	4.93	O-P-	1	1.813	yelp	stirred	hilt	n/a
38.51	4.93	O+P+	1	0.636	wife	west	best	2.0
43.44	4.93	O-P-	1	0.91	flown	weave	latch	n/a
48.37	4.93	O-P+	0	1.027	beak	lance	sleek	n/a
57.3	4.85	control	1	0.633	500	700	700	2.0
62.15	4.85	control	1	0.681	300	700	700	2.0
67.0	4.85	control	1	0.708	300	500	700	n/a
71.85	4.85	control	1	0.76	300	500	300	1.0
76.7	4.85	control	1	0.677	500	300	700	n/a
81.55	4.85	control	1	0.702	700	300	700	1.0
86.4	4.85	control	1	0.751	500	700	300	n/a
91.25	4.85	control	1	0.746	500	300	300	2.0
96.1	4.85	control	1	0.604	700	300	500	n/a
100.95	4.85	control	1	0.69	700	500	700	1.0
109.8	4.93	O-P+	1	1.207	toys	lore	poise	n/a
114.73	4.93	O-P-	1	0.86	layer	scream	snap	n/a
119.66	4.93	O+P+	1	1.041	park	corn	born	2.0
124.59	4.93	O-P+	0	1.242	snug	froze	blows	n/a
129.52	4.93	O-P-	1	0.867	healed	reek	fling	n/a
134.45	4.93	O+P+	1	0.964	scanned	brisk	tanned	1.0
139.38	4.93	O-P+	1	1.0	slab	stew	glue	n/a
144.31	4.93	O+P+	0	1.345	hurled	slouch	curled	1.0
149.24	4.93	O-P-	1	0.905	strayed	pawn	carve	n/a
154.17	4.93	O-P-	1	0.913	toil	shrunk	hoist	n/a
163.1	4.85	control	1	0.678	700	500	300	n/a
167.95	4.85	control	1	0.781	700	300	300	2.0
172.8	4.85	control	1	0.647	500	300	700	n/a
177.65	4.85	control	1	0.652	700	300	500	n/a
182.5	4.85	control	1	0.758	300	500	500	2.0
187.35	4.85	control	0	0.957	300	700	300	1.0
192.2	4.85	control	1	0.877	300	700	500	n/a
197.05	4.85	control	1	0.644	500	300	500	1.0
201.9	4.85	control	0	0.558	700	500	500	2.0
206.75	4.85	control	1	0.756	500	700	500	1.0
215.6	4.93	O-P-	1	0.842	plum	wince	hick	n/a
220.53	4.93	O-P+	1	1.206	left	style	while	n/a
225.46	4.93	O+P+	1	0.763	thud	boom	stud	1.0
230.39	4.93	O-P+	1	0.953	lord	rush	ward	n/a
235.32	4.93	O-P+	1	1.169	line	fast	sign	n/a
240.25	4.93	O+P+	1	0.724	built	vote	note	2.0
245.18	4.93	O-P-	1	0.866	whim	skies	plush	n/a
250.11	4.93	O-P-	1	0.837	vents	swum	grail	n/a
255.04	4.93	O+P+	1	0.865	thank	gift	shift	2.0
259.97	4.93	O-P-	1	0.846	mine	stop	single	n/a
268.9	4.85	control	1	0.559	500	700	700	2.0
273.75	4.85	control	1	0.65	300	500	700	n/a
278.6	4.85	control	1	0.693	700	300	500	n/a
283.45	4.85	control	1	0.591	700	300	700	1.0
288.3	4.85	control	1	0.743	500	300	300	2.0
293.15	4.85	control	1	0.683	500	300	700	n/a
298.0	4.85	control	1	0.655	300	500	300	1.0
302.85	4.85	control	1	0.573	500	700	300	n/a
307.7	4.85	control	1	0.702	300	700	700	2.0
312.55	4.85	control	1	0.492	700	500	700	1.0
321.4	4.93	O-P-	1	0.673	lunge	tack	twelfth	n/a
326.33	4.93	O+P+	1	1.208	twin	moat	goat	2.0
331.26	4.93	O-P+	0	1.101	stub	coughed	loft	n/a
336.19	4.93	O-P+	1	1.095	clerk	house	work	n/a
341.12	4.93	O+P+	0	1.018	jeep	crown	sheep	1.0
346.05	4.93	O-P-	1	0.778	idle	dumb	grey	n/a
350.98	4.93	O-P-	1	1.025	scoff	bribe	splice	n/a
355.91	4.93	O+P+	1	0.941	squeeze	lump	freeze	1.0
360.84	4.93	O-P+	1	0.936	join	school	rule	n/a
365.77	4.93	O-P-	1	0.765	shrine	sting	probe	n/a
374.7	4.85	control	1	0.629	700	500	300	n/a
379.55	4.85	control	1	0.642	700	300	500	n/a
384.4	4.85	control	1	0.715	300	500	500	2.0
389.25	4.85	control	1	0.605	700	500	500	2.0
394.1	4.85	control	1	0.706	500	300	700	n/a
398.95	4.85	control	1	0.74	500	300	500	1.0
403.8	4.85	control	1	0.91	500	700	500	1.0
408.65	4.85	control	1	0.801	700	300	300	2.0
413.5	4.85	control	1	0.53	300	700	500	n/a
418.35	4.85	control	1	0.851	300	700	300	1.0
427.2	4.93	O-P-	1	0.88	baffle	whacked	grit	n/a
432.13	4.93	O-P+	1	0.795	strung	snort	quart	n/a
437.06	4.93	O-P-	1	0.725	storm	wire	guess	n/a
441.99	4.93	O+P+	1	0.765	loud	eighth	cloud	1.0
446.92	4.93	O-P-	1	0.747	lend	pill	quart	n/a
451.85	4.93	O+P+	1	0.774	glum	licked	kicked	2.0
456.78	4.93	O-P+	0	1.235	rough	vague	stuff	n/a
461.71	4.93	O-P-	1	0.815	foot	snake	thin	n/a
466.64	4.93	O+P+	1	1.32	soil	slow	grow	2.0
471.57	4.93	O-P+	1	0.895	hope	colt	soap	n/a
480.5	4.85	control	1	0.718	700	300	500	n/a
485.35	4.85	control	1	0.722	300	700	700	2.0
490.2	4.85	control	1	0.703	300	500	700	n/a
495.05	4.85	control	1	0.658	700	300	700	1.0
499.9	4.85	control	1	0.754	500	300	300	2.0
504.75	4.85	control	1	0.726	500	300	700	n/a
509.6	4.85	control	1	0.731	300	500	300	1.0
514.45	4.85	control	1	0.901	500	700	300	n/a
519.3	4.85	control	1	0.821	500	700	700	2.0
524.15	4.85	control	0	1.093	700	500	700	1.0
