onset	duration	trial_type	accuracy	response_time	stimA	stimB	stimC	match_posit
4.0	4.91	Unrelated	1	2.409	gravel	pants	turkey	n/a
8.91	4.91	Related	1	1.762	driver	silent	quiet	2.0
13.82	4.91	Related	1	1.324	tag	sock	shoe	2.0
18.73	4.91	Unrelated	1	1.586	able	mother	party	n/a
23.64	4.91	Related	1	1.287	throw	weapon	catch	1.0
28.55	4.91	Related	1	1.51	tablet	seafood	shrimp	2.0
33.46	4.91	Related	1	1.24	question	behind	answer	1.0
38.37	4.91	Unrelated	1	1.485	club	paid	thinking	n/a
43.28	4.91	Related	1	1.223	syrup	flown	pancakes	1.0
48.19	4.91	Unrelated	1	1.844	nursery	curtain	roar	n/a
57.1	4.91	control	1	0.843	\ /	/ \	\ /	1.0
62.01	4.91	control	1	1.058	\ /	/ \	/ \	2.0
66.92	4.91	control	1	1.245	\ \	\ /	/ \	n/a
71.83	4.91	control	1	1.01	/ /	/ \	/ /	1.0
76.74	4.91	control	1	1.063	\ /	/ \	/ /	n/a
81.65	4.91	control	1	1.092	/ \	/ /	\ /	n/a
86.56	4.91	control	1	1.045	\ \	\ /	\ \	1.0
91.47	4.91	control	1	0.88	/ /	/ \	\ \	n/a
96.38	4.91	control	1	1.126	/ /	/ \	/ \	2.0
101.29	4.91	control	1	1.203	\ \	\ /	\ /	2.0
110.2	4.91	Related	1	1.253	dog	vote	cat	1.0
115.11	4.91	Related	1	1.218	razor	drag	blade	1.0
120.02	4.91	Unrelated	1	1.428	choppy	bandit	thorn	n/a
124.93	4.91	Related	1	1.185	finish	recall	end	1.0
129.84	4.91	Unrelated	1	1.505	chunk	hoof	stitch	n/a
134.75	4.91	Unrelated	1	1.622	roller	kettle	chalk	n/a
139.66	4.91	Related	0	1.758	peanut	oyster	clam	2.0
144.57	4.91	Unrelated	1	1.444	stream	guy	rear	n/a
149.48	4.91	Related	1	1.341	priest	sketch	draw	2.0
154.39	4.91	Related	1	1.157	stinging	washer	dryer	2.0
163.3	4.91	control	1	1.048	\ \	/ /	/ \	n/a
168.21	4.91	control	1	1.044	\ /	\ \	\ \	2.0
173.12	4.91	control	1	1.592	\ /	\ \	\ /	1.0
178.03	4.91	control	1	0.892	/ /	\ \	\ /	n/a
182.94	4.91	control	1	0.953	/ /	\ \	\ \	2.0
187.85	4.91	control	1	0.903	/ \	/ /	/ /	2.0
192.76	4.91	control	1	0.983	/ /	\ \	/ /	1.0
197.67	4.91	control	1	1.113	/ \	/ /	/ \	1.0
202.58	4.91	control	1	0.928	/ \	\ \	/ /	n/a
207.49	4.91	control	1	1.076	\ /	/ /	/ \	n/a
216.4	4.91	Related	1	1.15	tenth	circus	clown	2.0
221.31	4.91	Unrelated	1	1.184	blanket	cried	split	n/a
226.22	4.91	Related	1	1.127	dipping	smudge	smear	2.0
231.13	4.91	Unrelated	1	1.44	wing	hunter	lemon	n/a
236.04	4.91	Related	1	1.243	rib	jello	pudding	2.0
240.95	4.91	Related	1	1.869	server	flashy	waiter	1.0
245.86	4.91	Related	1	1.132	dime	fuss	nickel	1.0
250.77	4.91	Unrelated	1	1.335	pillow	bounce	grinding	n/a
255.68	4.91	Related	1	1.29	left	got	right	1.0
260.59	4.91	Unrelated	1	1.383	cream	pipe	grip	n/a
269.5	4.91	control	1	1.087	/ \	\ \	\ \	2.0
274.41	4.91	control	1	1.049	/ /	\ /	/ \	n/a
279.32	4.91	control	1	1.052	/ /	/ \	\ \	n/a
284.23	4.91	control	1	1.04	\ \	/ /	\ \	1.0
289.14	4.91	control	1	1.17	\ \	/ /	/ /	2.0
294.05	4.91	control	1	1.062	/ /	\ /	\ /	2.0
298.96	4.91	control	1	0.95	\ /	/ \	/ /	n/a
303.87	4.91	control	1	0.998	/ \	\ \	/ \	1.0
308.78	4.91	control	1	0.863	/ /	\ /	/ /	1.0
313.69	4.91	control	1	0.93	\ \	/ \	/ /	n/a
322.6	4.91	Related	1	1.269	yours	arrive	mine	1.0
327.51	4.91	Unrelated	1	1.09	took	system	head	n/a
332.42	4.91	Related	1	1.59	how	little	big	2.0
337.33	4.91	Unrelated	1	1.801	scar	mister	tunnel	n/a
342.24	4.91	Unrelated	1	1.374	rich	store	pointed	n/a
347.15	4.91	Related	1	1.099	angle	achieve	goal	2.0
352.06	4.91	Related	1	1.234	racket	stealth	tennis	1.0
356.97	4.91	Unrelated	1	1.325	tangle	pretend	barker	n/a
361.88	4.91	Related	1	1.328	glue	lifting	sticky	1.0
366.79	4.91	Related	1	1.102	bush	thunder	lightning	2.0
375.7	4.91	control	1	1.192	\ \	\ /	/ \	n/a
380.61	4.91	control	1	0.855	/ \	\ /	\ /	2.0
385.52	4.91	control	1	1.051	/ \	/ /	\ /	n/a
390.43	4.91	control	1	0.855	\ /	/ /	\ /	1.0
395.34	4.91	control	1	0.857	\ \	/ \	/ \	2.0
400.25	4.91	control	1	0.963	\ \	/ /	\ /	n/a
405.16	4.91	control	1	1.008	\ \	/ \	\ \	1.0
410.07	4.91	control	1	0.934	/ \	\ /	/ \	1.0
414.98	4.91	control	1	0.819	\ /	/ /	/ /	2.0
419.89	4.91	control	1	0.915	/ /	\ \	\ /	n/a
428.8	4.91	Related	1	1.397	lend	instinct	borrow	1.0
433.71	4.91	Unrelated	1	1.195	hearing	formed	bottle	n/a
438.62	4.91	Related	1	1.533	mask	cheese	cracker	2.0
443.53	4.91	Related	0	1.529	plenty	motion	movement	2.0
448.44	4.91	Related	1	1.263	cow	silver	gold	2.0
453.35	4.91	Unrelated	1	0.979	tilting	jewel	moan	n/a
458.26	4.91	Unrelated	1	1.888	corn	pencil	blame	n/a
463.17	4.91	Related	1	1.288	thin	jack	fat	1.0
468.08	4.91	Unrelated	1	1.189	starter	pigeon	gamble	n/a
472.99	4.91	Related	0	1.369	temper	deaf	tantrum	1.0
481.9	4.91	control	1	0.898	/ \	/ /	/ /	2.0
486.81	4.91	control	1	1.141	\ \	/ \	/ \	2.0
491.72	4.91	control	1	0.965	\ \	/ \	\ /	n/a
496.63	4.91	control	1	1.054	/ /	/ \	/ /	1.0
501.54	4.91	control	1	0.906	\ /	\ \	\ \	2.0
506.45	4.91	control	1	1.008	\ /	/ /	\ \	n/a
511.36	4.91	control	1	0.81	/ \	\ \	/ /	n/a
516.27	4.91	control	1	1.198	/ \	\ \	/ \	1.0
521.18	4.91	control	1	1.304	\ \	\ /	\ \	1.0
526.09	4.91	control	1	0.994	/ /	\ /	\ \	n/a
