onset	duration	trial_type	accuracy	response_time	stimA	stimB	stimC	match_posit
4.0	4.93	Related	1	1.24	unfit	checkers	chess	2.0
8.93	4.93	Unrelated	1	1.308	ready	trade	square	n/a
13.86	4.93	Related	1	0.949	mom	saturn	dad	1.0
18.79	4.93	Related	1	1.172	thankful	algae	fungus	2.0
23.72	4.93	Unrelated	1	1.006	forgave	glide	maiden	n/a
28.65	4.93	Related	1	1.101	quack	ivy	duck	1.0
33.58	4.93	Related	1	1.3	skunk	cuff	stink	1.0
38.51	4.93	Unrelated	1	1.619	gently	tube	ceiling	n/a
43.44	4.93	Unrelated	1	1.524	weep	charcoal	dice	n/a
48.37	4.93	Related	1	1.305	fit	murder	kill	2.0
57.3	4.85	control	1	1.106	700	500	700	1.0
62.15	4.85	control	1	1.094	500	700	700	2.0
67.0	4.85	control	1	1.374	500	700	300	n/a
71.85	4.85	control	1	1.164	300	500	300	1.0
76.7	4.85	control	1	1.256	700	300	500	n/a
81.55	4.85	control	1	2.393	500	300	700	n/a
86.4	4.85	control	1	1.34	700	300	700	1.0
91.25	4.85	control	1	1.39	300	500	700	n/a
96.1	4.85	control	0	1.504	300	700	700	2.0
100.95	4.85	control	1	1.241	500	300	300	2.0
109.8	4.93	Unrelated	1	1.042	dessert	stir	bony	n/a
114.73	4.93	Related	1	1.048	ape	beaver	monkey	1.0
119.66	4.93	Related	1	1.393	rack	cologne	perfume	2.0
124.59	4.93	Unrelated	1	1.023	lion	steam	gap	n/a
129.52	4.93	Related	1	1.723	turn	love	hate	2.0
134.45	4.93	Unrelated	1	1.863	plug	select	belly	n/a
139.38	4.93	Related	1	1.784	dish	fancy	plate	1.0
144.31	4.93	Unrelated	1	2.415	june	lord	oil	n/a
149.24	4.93	Related	1	1.208	sunny	pepper	cloudy	1.0
154.17	4.93	Related	1	1.442	cooling	teach	learn	2.0
163.1	4.85	control	1	1.231	500	300	700	n/a
167.95	4.85	control	1	1.01	300	500	500	2.0
172.8	4.85	control	1	1.272	500	300	500	1.0
177.65	4.85	control	1	1.309	700	500	300	n/a
182.5	4.85	control	1	1.521	700	500	500	2.0
187.35	4.85	control	1	1.281	700	300	300	2.0
192.2	4.85	control	1	1.632	500	700	500	1.0
197.05	4.85	control	1	1.141	300	700	300	1.0
201.9	4.85	control	1	1.362	700	300	500	n/a
206.75	4.85	control	1	1.379	300	700	500	n/a
215.6	4.93	Unrelated	1	1.277	flow	warm	teaching	n/a
220.53	4.93	Related	1	1.455	earth	sat	ground	1.0
225.46	4.93	Unrelated	1	1.189	drinking	suit	poem	n/a
230.39	4.93	Unrelated	1	1.808	flood	spell	dim	n/a
235.32	4.93	Related	1	1.17	awful	fuel	gas	2.0
240.25	4.93	Related	0	1.407	without	again	repeat	2.0
245.18	4.93	Unrelated	1	1.204	standard	heavy	wish	n/a
250.11	4.93	Related	1	1.177	web	explode	spider	1.0
255.04	4.93	Related	1	1.679	trash	hive	garbage	1.0
259.97	4.93	Related	1	1.199	law	human	person	2.0
268.9	4.85	control	1	1.294	500	300	300	2.0
273.75	4.85	control	1	1.133	300	500	700	n/a
278.6	4.85	control	1	1.9	700	300	500	n/a
283.45	4.85	control	1	1.538	300	500	300	1.0
288.3	4.85	control	1	1.275	300	700	700	2.0
293.15	4.85	control	0	1.898	500	700	700	2.0
298.0	4.85	control	1	1.53	500	700	300	n/a
302.85	4.85	control	1	1.014	700	300	700	1.0
307.7	4.85	control	1	1.293	500	300	700	n/a
312.55	4.85	control	1	1.644	700	500	700	1.0
321.4	4.93	Related	1	1.134	loud	awake	asleep	2.0
326.33	4.93	Unrelated	1	1.976	pirate	shorten	bandage	n/a
331.26	4.93	Related	1	1.514	gather	alike	collect	1.0
336.19	4.93	Related	1	1.343	spread	ship	boat	2.0
341.12	4.93	Unrelated	1	1.324	winking	soak	invent	n/a
346.05	4.93	Unrelated	1	1.134	mop	swan	tug	n/a
350.98	4.93	Related	1	1.243	gang	hide	seek	2.0
355.91	4.93	Related	0	2.58	backbone	loaf	spine	1.0
360.84	4.93	Unrelated	1	2.783	fur	youngest	compass	n/a
365.77	4.93	Related	1	1.477	film	giving	movie	1.0
374.7	4.85	control	1	1.247	500	300	700	n/a
379.55	4.85	control	1	1.148	300	500	500	2.0
384.4	4.85	control	1	1.306	300	700	500	n/a
389.25	4.85	control	1	1.995	300	700	300	1.0
394.1	4.85	control	1	1.74	700	500	500	2.0
398.95	4.85	control	1	1.153	700	500	300	n/a
403.8	4.85	control	1	2.082	500	700	500	1.0
408.65	4.85	control	1	2.656	500	300	500	1.0
413.5	4.85	control	1	1.168	700	300	300	2.0
418.35	4.85	control	1	1.581	700	300	500	n/a
427.2	4.93	Unrelated	1	1.007	sunset	creek	arrow	n/a
432.13	4.93	Related	1	1.166	cactus	veal	prickly	1.0
437.06	4.93	Related	1	1.322	spoon	canoe	fork	1.0
441.99	4.93	Unrelated	1	1.375	tackle	bacon	wipe	n/a
446.92	4.93	Related	1	1.25	founder	dig	shovel	2.0
451.85	4.93	Related	1	1.183	aim	supper	dinner	2.0
456.78	4.93	Related	1	1.401	gloom	purse	wallet	2.0
461.71	4.93	Unrelated	1	2.684	chest	handle	depth	n/a
466.64	4.93	Related	1	0.832	summer	trial	winter	1.0
471.57	4.93	Unrelated	1	0.996	joke	wealth	chart	n/a
480.5	4.85	control	1	2.578	500	700	700	2.0
485.35	4.85	control	1	2.109	700	300	500	n/a
490.2	4.85	control	1	1.926	300	700	700	2.0
495.05	4.85	control	1	1.126	700	500	700	1.0
499.9	4.85	control	1	1.171	500	300	300	2.0
504.75	4.85	control	1	1.312	500	300	700	n/a
509.6	4.85	control	0	n/a	500	700	300	n/a
514.45	4.85	control	1	1.298	700	300	700	1.0
519.3	4.85	control	1	1.694	300	500	300	1.0
524.15	4.85	control	1	1.296	300	500	700	n/a
