onset	duration	trial_type	accuracy	response_time	stimA	stimB	stimC	match_posit
4.0	4.93	O-P+	1	1.729	guide	folk	smoke	2.0
8.93	4.93	O-P-	1	1.224	belt	wave	struck	n/a
13.86	4.93	O-P+	1	1.381	clone	trash	moan	1.0
18.79	4.93	O+P+	1	1.287	bench	lean	dean	2.0
23.72	4.93	O-P+	1	1.613	type	globe	ripe	1.0
28.65	4.93	O-P-	1	1.366	shacks	hinge	tong	n/a
33.58	4.93	O+P+	1	1.673	bond	brass	pond	1.0
38.51	4.93	O+P+	1	1.397	flask	slime	dime	2.0
43.44	4.93	O-P-	1	0.878	hike	lurch	loaf	n/a
48.37	4.93	O-P-	1	1.267	crook	sneeze	stout	n/a
57.3	4.85	control	1	1.497	300	500	700	n/a
62.15	4.85	control	0	1.204	500	700	300	n/a
67.0	4.85	control	1	1.309	300	500	300	1.0
71.85	4.85	control	1	2.136	700	300	500	n/a
76.7	4.85	control	1	1.638	500	300	300	2.0
81.55	4.85	control	1	1.985	700	500	700	1.0
86.4	4.85	control	1	1.569	700	300	700	1.0
91.25	4.85	control	1	1.324	300	700	700	2.0
96.1	4.85	control	1	1.296	500	700	700	2.0
100.95	4.85	control	1	2.555	500	300	700	n/a
109.8	4.93	O-P+	1	1.495	tying	cursed	thirst	2.0
114.73	4.93	O-P+	1	1.459	coil	stomp	swamp	2.0
119.66	4.93	O-P-	1	1.353	crude	damp	cops	n/a
124.59	4.93	O-P-	1	0.923	bound	roof	mark	n/a
129.52	4.93	O+P+	1	1.58	mumble	dressed	messed	2.0
134.45	4.93	O-P-	1	1.81	yours	shame	tube	n/a
139.38	4.93	O-P-	1	1.743	blank	heap	odds	n/a
144.31	4.93	O-P+	1	1.472	force	judge	source	1.0
149.24	4.93	O+P+	1	2.004	stripe	spoil	swipe	1.0
154.17	4.93	O+P+	1	1.572	crutch	chuckle	clutch	1.0
163.1	4.85	control	1	1.181	300	700	300	1.0
167.95	4.85	control	1	1.158	300	500	500	2.0
172.8	4.85	control	0	1.522	300	700	500	n/a
177.65	4.85	control	1	1.479	500	300	500	1.0
182.5	4.85	control	1	1.373	500	700	500	1.0
187.35	4.85	control	1	1.025	700	500	300	n/a
192.2	4.85	control	1	1.198	700	500	500	2.0
197.05	4.85	control	1	1.818	700	300	500	n/a
201.9	4.85	control	1	2.091	500	300	700	n/a
206.75	4.85	control	1	1.457	700	300	300	2.0
215.6	4.93	O+P+	1	1.049	bees	clothe	fees	1.0
220.53	4.93	O-P+	1	1.887	spaced	dangle	chased	1.0
225.46	4.93	O-P-	1	2.182	bull	dice	chuck	n/a
230.39	4.93	O+P+	1	1.805	ring	move	prove	2.0
235.32	4.93	O+P+	1	1.939	scald	ceased	greased	2.0
240.25	4.93	O-P+	1	1.578	news	beyond	whose	1.0
245.18	4.93	O-P-	1	1.488	sand	catch	truck	n/a
250.11	4.93	O-P-	1	1.402	chick	peas	drier	n/a
255.04	4.93	O-P+	1	2.119	milk	proud	crowd	2.0
259.97	4.93	O-P-	1	1.239	just	front	then	n/a
268.9	4.85	control	1	1.6	700	500	700	1.0
273.75	4.85	control	0	2.038	700	300	500	n/a
278.6	4.85	control	1	1.194	500	300	700	n/a
283.45	4.85	control	1	1.247	500	300	300	2.0
288.3	4.85	control	1	1.685	500	700	700	2.0
293.15	4.85	control	1	1.923	300	500	700	n/a
298.0	4.85	control	1	1.438	300	500	300	1.0
302.85	4.85	control	0	2.394	500	700	300	n/a
307.7	4.85	control	1	1.276	300	700	700	2.0
312.55	4.85	control	1	2.168	700	300	700	1.0
321.4	4.93	O-P-	1	1.929	deed	thaw	lamb	n/a
326.33	4.93	O-P+	1	1.537	tense	drunk	monk	2.0
331.26	4.93	O+P+	1	1.691	haze	scold	fold	2.0
336.19	4.93	O+P+	1	1.803	bite	hump	kite	1.0
341.12	4.93	O-P-	0	2.447	thug	crossed	surf	n/a
346.05	4.93	O+P+	1	1.231	food	golf	mood	1.0
350.98	4.93	O-P+	1	1.133	lace	shrink	vase	1.0
355.91	4.93	O-P+	1	1.243	poodle	lame	maim	2.0
360.84	4.93	O-P-	1	2.354	goods	core	hill	n/a
365.77	4.93	O-P-	1	1.349	fleet	loyal	urge	n/a
374.7	4.85	control	1	1.591	300	500	500	2.0
379.55	4.85	control	1	1.652	500	300	700	n/a
384.4	4.85	control	1	1.285	700	300	300	2.0
389.25	4.85	control	1	1.511	700	500	300	n/a
394.1	4.85	control	0	1.94	500	300	500	1.0
398.95	4.85	control	1	1.154	700	500	500	2.0
403.8	4.85	control	1	2.067	300	700	300	1.0
408.65	4.85	control	1	2.496	500	700	500	1.0
413.5	4.85	control	1	1.769	300	700	500	n/a
418.35	4.85	control	1	2.376	700	300	500	n/a
427.2	4.93	O-P+	1	1.554	worn	state	freight	2.0
432.13	4.93	O+P+	1	0.974	slip	draft	craft	2.0
437.06	4.93	O-P-	1	0.924	jungle	drift	mess	n/a
441.99	4.93	O+P+	1	2.172	pulse	gloss	moss	2.0
446.92	4.93	O-P+	1	0.906	chart	farm	heart	1.0
451.85	4.93	O-P-	1	2.314	crib	spine	zest	n/a
456.78	4.93	O-P+	1	1.917	perch	wilt	birch	1.0
461.71	4.93	O-P-	1	1.712	stews	toot	hark	n/a
466.64	4.93	O+P+	1	1.475	test	choice	rest	1.0
471.57	4.93	O-P-	1	1.602	teach	fund	edge	n/a
480.5	4.85	control	1	1.314	700	500	700	1.0
485.35	4.85	control	1	2.139	300	500	300	1.0
490.2	4.85	control	1	1.326	300	700	700	2.0
495.05	4.85	control	1	2.509	300	500	700	n/a
499.9	4.85	control	1	1.156	500	700	700	2.0
504.75	4.85	control	0	2.175	700	300	500	n/a
509.6	4.85	control	1	1.593	500	300	700	n/a
514.45	4.85	control	1	2.272	700	300	700	1.0
519.3	4.85	control	1	1.386	500	300	300	2.0
524.15	4.85	control	1	1.541	500	700	300	n/a
