onset	duration	trial_type	accuracy	response_time	stimA	stimB	stimC	match_posit
4.0	4.93	O-P+	0	1.747	youth	bridge	truth	n/a
8.93	4.93	O-P+	1	1.106	june	term	firm	n/a
13.86	4.93	O+P+	1	0.959	hold	plant	cold	1.0
18.79	4.93	O-P-	1	0.846	client	flung	trick	n/a
23.72	4.93	O+P+	1	0.858	slept	cone	bone	2.0
28.65	4.93	O-P-	1	0.986	fight	look	show	n/a
33.58	4.93	O-P-	1	1.28	yelp	stirred	hilt	n/a
38.51	4.93	O+P+	1	0.874	wife	west	best	2.0
43.44	4.93	O-P-	1	0.846	flown	weave	latch	n/a
48.37	4.93	O-P+	1	2.31	beak	lance	sleek	n/a
57.3	4.85	control	1	0.747	500	700	700	2.0
62.15	4.85	control	1	0.793	300	700	700	2.0
67.0	4.85	control	1	0.983	300	500	700	n/a
71.85	4.85	control	1	0.932	300	500	300	1.0
76.7	4.85	control	1	0.662	500	300	700	n/a
81.55	4.85	control	1	0.99	700	300	700	1.0
86.4	4.85	control	1	1.019	500	700	300	n/a
91.25	4.85	control	1	1.088	500	300	300	2.0
96.1	4.85	control	1	0.751	700	300	500	n/a
100.95	4.85	control	1	0.708	700	500	700	1.0
109.8	4.93	O-P+	1	1.253	toys	lore	poise	n/a
114.73	4.93	O-P-	1	0.843	layer	scream	snap	n/a
119.66	4.93	O+P+	1	1.033	park	corn	born	2.0
124.59	4.93	O-P+	1	0.844	snug	froze	blows	n/a
129.52	4.93	O-P-	1	0.91	healed	reek	fling	n/a
134.45	4.93	O+P+	1	0.997	scanned	brisk	tanned	1.0
139.38	4.93	O-P+	1	1.18	slab	stew	glue	n/a
144.31	4.93	O+P+	1	0.843	hurled	slouch	curled	1.0
149.24	4.93	O-P-	1	0.836	strayed	pawn	carve	n/a
154.17	4.93	O-P-	1	0.917	toil	shrunk	hoist	n/a
163.1	4.85	control	1	0.739	700	500	300	n/a
167.95	4.85	control	1	0.764	700	300	300	2.0
172.8	4.85	control	1	0.753	500	300	700	n/a
177.65	4.85	control	1	0.8	700	300	500	n/a
182.5	4.85	control	1	0.6	300	500	500	2.0
187.35	4.85	control	1	1.048	300	700	300	1.0
192.2	4.85	control	1	0.782	300	700	500	n/a
197.05	4.85	control	1	0.889	500	300	500	1.0
201.9	4.85	control	1	0.756	700	500	500	2.0
206.75	4.85	control	1	0.961	500	700	500	1.0
215.6	4.93	O-P-	1	0.735	plum	wince	hick	n/a
220.53	4.93	O-P+	1	1.342	left	style	while	n/a
225.46	4.93	O+P+	0	0.981	thud	boom	stud	1.0
230.39	4.93	O-P+	1	1.651	lord	rush	ward	n/a
235.32	4.93	O-P+	1	1.083	line	fast	sign	n/a
240.25	4.93	O+P+	0	1.029	built	vote	note	2.0
245.18	4.93	O-P-	1	0.811	whim	skies	plush	n/a
250.11	4.93	O-P-	1	0.982	vents	swum	grail	n/a
255.04	4.93	O+P+	1	0.764	thank	gift	shift	2.0
259.97	4.93	O-P-	1	1.124	mine	stop	single	n/a
268.9	4.85	control	1	0.706	500	700	700	2.0
273.75	4.85	control	1	0.782	300	500	700	n/a
278.6	4.85	control	1	0.843	700	300	500	n/a
283.45	4.85	control	1	1.038	700	300	700	1.0
288.3	4.85	control	1	1.013	500	300	300	2.0
293.15	4.85	control	1	0.68	500	300	700	n/a
298.0	4.85	control	1	0.923	300	500	300	1.0
302.85	4.85	control	1	0.883	500	700	300	n/a
307.7	4.85	control	1	0.756	300	700	700	2.0
312.55	4.85	control	1	0.757	700	500	700	1.0
321.4	4.93	O-P-	1	0.827	lunge	tack	twelfth	n/a
326.33	4.93	O+P+	0	1.145	twin	moat	goat	2.0
331.26	4.93	O-P+	1	1.497	stub	coughed	loft	n/a
336.19	4.93	O-P+	1	0.85	clerk	house	work	n/a
341.12	4.93	O+P+	1	0.989	jeep	crown	sheep	1.0
346.05	4.93	O-P-	1	0.867	idle	dumb	grey	n/a
350.98	4.93	O-P-	1	1.037	scoff	bribe	splice	n/a
355.91	4.93	O+P+	1	0.792	squeeze	lump	freeze	1.0
360.84	4.93	O-P+	1	1.855	join	school	rule	n/a
365.77	4.93	O-P-	1	0.849	shrine	sting	probe	n/a
374.7	4.85	control	1	0.748	700	500	300	n/a
379.55	4.85	control	1	0.751	700	300	500	n/a
384.4	4.85	control	1	0.865	300	500	500	2.0
389.25	4.85	control	1	0.827	700	500	500	2.0
394.1	4.85	control	1	0.744	500	300	700	n/a
398.95	4.85	control	1	0.84	500	300	500	1.0
403.8	4.85	control	1	1.032	500	700	500	1.0
408.65	4.85	control	1	0.73	700	300	300	2.0
413.5	4.85	control	1	0.78	300	700	500	n/a
418.35	4.85	control	1	0.903	300	700	300	1.0
427.2	4.93	O-P-	1	0.729	baffle	whacked	grit	n/a
432.13	4.93	O-P+	1	0.885	strung	snort	quart	n/a
437.06	4.93	O-P-	1	0.874	storm	wire	guess	n/a
441.99	4.93	O+P+	1	0.948	loud	eighth	cloud	1.0
446.92	4.93	O-P-	1	0.757	lend	pill	quart	n/a
451.85	4.93	O+P+	1	0.828	glum	licked	kicked	2.0
456.78	4.93	O-P+	0	1.468	rough	vague	stuff	n/a
461.71	4.93	O-P-	1	0.864	foot	snake	thin	n/a
466.64	4.93	O+P+	0	0.916	soil	slow	grow	2.0
471.57	4.93	O-P+	1	1.139	hope	colt	soap	n/a
480.5	4.85	control	1	0.791	700	300	500	n/a
485.35	4.85	control	1	0.977	300	700	700	2.0
490.2	4.85	control	1	1.397	300	500	700	n/a
495.05	4.85	control	1	0.74	700	300	700	1.0
499.9	4.85	control	1	0.809	500	300	300	2.0
504.75	4.85	control	1	0.894	500	300	700	n/a
509.6	4.85	control	1	0.914	300	500	300	1.0
514.45	4.85	control	1	0.779	500	700	300	n/a
519.3	4.85	control	1	0.759	500	700	700	2.0
524.15	4.85	control	0	0.756	700	500	700	1.0
