onset	duration	trial_type	accuracy	response_time	stimA	stimB	stimC	match_posit
4.0	4.91	Grammatical	1	1.219	divers	were	floating	n/a
8.91	4.91	Ungrammatical	1	1.266	squirrels	has	sniff	n/a
13.82	4.91	Grammatical	1	1.269	buyers	can	rent	n/a
18.73	4.91	Ungrammatical	1	1.151	wolf	could	howling	n/a
23.64	4.91	Grammatical	1	1.215	salesman	is	loud	n/a
28.55	4.91	Ungrammatical	1	1.294	cousin	is	talk	n/a
33.46	4.91	Grammatical	1	1.268	witness	is	honest	n/a
38.37	4.91	Ungrammatical	1	1.261	librarians	can	accusing	n/a
43.28	4.91	Grammatical	1	1.088	fox	was	clever	n/a
48.19	4.91	Grammatical	1	1.372	collector	was	blamed	n/a
57.1	4.91	control	1	1.098	\ /	/ \	/ \	2.0
62.01	4.91	control	1	1.131	\ /	/ \	/ /	n/a
66.92	4.91	control	1	1.114	\ \	\ /	\ \	1.0
71.83	4.91	control	1	1.155	\ \	\ /	/ \	n/a
76.74	4.91	control	1	1.102	/ /	/ \	\ \	n/a
81.65	4.91	control	1	1.111	/ /	/ \	/ \	2.0
86.56	4.91	control	1	1.112	\ /	/ \	\ /	1.0
91.47	4.91	control	1	1.182	/ /	/ \	/ /	1.0
96.38	4.91	control	1	1.32	/ \	/ /	\ /	n/a
101.29	4.91	control	1	1.087	\ \	\ /	\ /	2.0
110.2	4.91	Grammatical	1	1.092	lion	was	chained	n/a
115.11	4.91	Ungrammatical	1	1.098	beavers	has	asleep	n/a
120.02	4.91	Ungrammatical	1	1.316	alligator	are	biting	n/a
124.93	4.91	Grammatical	1	1.154	snake	was	cornered	n/a
129.84	4.91	Grammatical	1	1.549	pilots	are	landing	n/a
134.75	4.91	Ungrammatical	1	1.187	wife	are	creative	n/a
139.66	4.91	Grammatical	1	1.264	weavers	could	knit	n/a
144.57	4.91	Grammatical	1	1.167	clowns	were	silly	n/a
149.48	4.91	Ungrammatical	1	1.122	players	were	change	n/a
154.39	4.91	Grammatical	1	1.181	ladies	were	helped	n/a
163.3	4.91	control	1	1.082	/ /	\ \	\ \	2.0
168.21	4.91	control	1	1.131	/ \	/ /	/ \	1.0
173.12	4.91	control	1	1.098	\ /	\ \	\ \	2.0
178.03	4.91	control	1	1.142	/ /	\ \	\ /	n/a
182.94	4.91	control	1	1.14	/ /	\ \	/ /	1.0
187.85	4.91	control	1	1.156	/ \	/ /	/ /	2.0
192.76	4.91	control	1	1.093	/ \	\ \	/ /	n/a
197.67	4.91	control	1	1.099	\ /	\ \	\ /	1.0
202.58	4.91	control	1	1.076	\ /	/ /	/ \	n/a
207.49	4.91	control	1	1.209	\ \	/ /	/ \	n/a
216.4	4.91	Grammatical	1	1.148	janitor	has	swept	n/a
221.31	4.91	Ungrammatical	1	1.195	grooms	could	nervous	n/a
226.22	4.91	Grammatical	1	1.136	soldiers	could	attack	n/a
231.13	4.91	Ungrammatical	1	1.209	generals	was	tripping	n/a
236.04	4.91	Ungrammatical	1	1.101	voters	was	cheering	n/a
240.95	4.91	Grammatical	1	1.11	toad	could	jump	n/a
245.86	4.91	Grammatical	1	1.167	director	can	watch	n/a
250.77	4.91	Ungrammatical	1	1.264	cooks	have	tasting	n/a
255.68	4.91	Grammatical	1	1.117	musician	can	tune	n/a
260.59	4.91	Grammatical	1	1.106	rats	were	climbing	n/a
269.5	4.91	control	1	1.13	\ \	/ /	/ /	2.0
274.41	4.91	control	1	1.175	/ /	/ \	\ \	n/a
279.32	4.91	control	1	1.183	/ /	\ /	/ \	n/a
284.23	4.91	control	1	1.143	/ /	\ /	/ /	1.0
289.14	4.91	control	1	1.05	/ \	\ \	/ \	1.0
294.05	4.91	control	1	1.061	/ /	\ /	\ /	2.0
298.96	4.91	control	1	1.043	/ \	\ \	\ \	2.0
303.87	4.91	control	1	1.062	\ /	/ \	/ /	n/a
308.78	4.91	control	1	1.066	\ \	/ /	\ \	1.0
313.69	4.91	control	1	1.086	\ \	/ \	/ /	n/a
322.6	4.91	Grammatical	1	1.116	turkey	was	roasted	n/a
327.51	4.91	Grammatical	1	1.185	dove	has	perched	n/a
332.42	4.91	Ungrammatical	1	1.295	horses	have	fast	n/a
337.33	4.91	Ungrammatical	1	1.121	manager	could	serious	n/a
342.24	4.91	Grammatical	1	1.174	detectives	are	surprised	n/a
347.15	4.91	Ungrammatical	1	1.254	nephew	has	lazy	n/a
352.06	4.91	Grammatical	1	1.075	maids	can	serve	n/a
356.97	4.91	Ungrammatical	1	1.125	vets	is	examine	n/a
361.88	4.91	Grammatical	1	1.066	cat	can	drink	n/a
366.79	4.91	Grammatical	1	1.077	sisters	are	smiling	n/a
375.7	4.91	control	1	1.088	\ \	\ /	/ \	n/a
380.61	4.91	control	1	1.089	\ \	/ \	\ \	1.0
385.52	4.91	control	1	1.146	/ \	\ /	\ /	2.0
390.43	4.91	control	1	1.094	\ /	/ /	\ /	1.0
395.34	4.91	control	1	1.15	\ /	/ /	/ /	2.0
400.25	4.91	control	1	1.144	/ \	/ /	\ /	n/a
405.16	4.91	control	1	1.106	\ \	/ /	\ /	n/a
410.07	4.91	control	1	1.074	\ \	/ \	/ \	2.0
414.98	4.91	control	1	1.046	/ \	\ /	/ \	1.0
419.89	4.91	control	1	1.157	/ /	\ \	\ /	n/a
428.8	4.91	Grammatical	1	1.057	pig	is	snorting	n/a
433.71	4.91	Grammatical	1	1.375	builders	are	strong	n/a
438.62	4.91	Ungrammatical	1	1.248	experts	are	test	n/a
443.53	4.91	Grammatical	1	1.328	riders	are	exercising	n/a
448.44	4.91	Grammatical	1	1.332	coach	can	win	n/a
453.35	4.91	Grammatical	1	1.161	gardeners	are	digging	n/a
458.26	4.91	Ungrammatical	1	1.125	uncle	had	learning	n/a
463.17	4.91	Grammatical	1	1.127	strangers	were	chosen	n/a
468.08	4.91	Ungrammatical	1	1.144	turtles	was	hide	n/a
472.99	4.91	Ungrammatical	1	1.219	boxer	has	punching	n/a
481.9	4.91	control	1	1.107	/ /	/ \	/ /	1.0
486.81	4.91	control	1	1.12	\ \	/ \	\ /	n/a
491.72	4.91	control	0	1.251	\ \	\ /	\ \	1.0
496.63	4.91	control	1	1.105	\ /	\ \	\ \	2.0
501.54	4.91	control	1	1.213	/ \	\ \	/ \	1.0
506.45	4.91	control	1	1.07	/ \	/ /	/ /	2.0
511.36	4.91	control	1	1.129	/ /	\ /	\ \	n/a
516.27	4.91	control	1	1.194	\ /	/ /	\ \	n/a
521.18	4.91	control	1	1.159	\ \	/ \	/ \	2.0
526.09	4.91	control	1	1.179	/ \	\ \	/ /	n/a
