onset	duration	trial_type	accuracy	response_time	stimA	stimB	stimC	match_posit
4.0	4.93	O-P+	1	1.331	guide	folk	smoke	2.0
8.93	4.93	O-P-	1	1.41	belt	wave	struck	n/a
13.86	4.93	O-P+	1	1.224	clone	trash	moan	1.0
18.79	4.93	O+P+	1	1.841	bench	lean	dean	2.0
23.72	4.93	O-P+	1	1.268	type	globe	ripe	1.0
28.65	4.93	O-P-	1	1.101	shacks	hinge	tong	n/a
33.58	4.93	O+P+	1	0.988	bond	brass	pond	1.0
38.51	4.93	O+P+	0	1.404	flask	slime	dime	2.0
43.44	4.93	O-P-	1	1.436	hike	lurch	loaf	n/a
48.37	4.93	O-P-	1	1.273	crook	sneeze	stout	n/a
57.3	4.85	control	1	1.196	300	500	700	n/a
62.15	4.85	control	1	1.148	500	700	300	n/a
67.0	4.85	control	1	1.51	300	500	300	1.0
71.85	4.85	control	1	1.071	700	300	500	n/a
76.7	4.85	control	1	1.206	500	300	300	2.0
81.55	4.85	control	0	1.579	700	500	700	1.0
86.4	4.85	control	1	0.997	700	300	700	1.0
91.25	4.85	control	1	1.078	300	700	700	2.0
96.1	4.85	control	1	0.99	500	700	700	2.0
100.95	4.85	control	1	1.381	500	300	700	n/a
109.8	4.93	O-P+	1	1.044	tying	cursed	thirst	2.0
114.73	4.93	O-P+	1	1.523	coil	stomp	swamp	2.0
119.66	4.93	O-P-	1	1.344	crude	damp	cops	n/a
124.59	4.93	O-P-	1	1.573	bound	roof	mark	n/a
129.52	4.93	O+P+	1	1.124	mumble	dressed	messed	2.0
134.45	4.93	O-P-	1	1.269	yours	shame	tube	n/a
139.38	4.93	O-P-	1	1.081	blank	heap	odds	n/a
144.31	4.93	O-P+	1	1.255	force	judge	source	1.0
149.24	4.93	O+P+	1	1.72	stripe	spoil	swipe	1.0
154.17	4.93	O+P+	1	1.112	crutch	chuckle	clutch	1.0
163.1	4.85	control	1	1.1	300	700	300	1.0
167.95	4.85	control	1	1.019	300	500	500	2.0
172.8	4.85	control	1	1.293	300	700	500	n/a
177.65	4.85	control	1	1.232	500	300	500	1.0
182.5	4.85	control	0	2.057	500	700	500	1.0
187.35	4.85	control	1	1.152	700	500	300	n/a
192.2	4.85	control	1	1.049	700	500	500	2.0
197.05	4.85	control	1	1.76	700	300	500	n/a
201.9	4.85	control	1	1.162	500	300	700	n/a
206.75	4.85	control	1	1.101	700	300	300	2.0
215.6	4.93	O+P+	0	1.329	bees	clothe	fees	1.0
220.53	4.93	O-P+	1	0.91	spaced	dangle	chased	1.0
225.46	4.93	O-P-	1	0.878	bull	dice	chuck	n/a
230.39	4.93	O+P+	1	0.935	ring	move	prove	2.0
235.32	4.93	O+P+	1	1.231	scald	ceased	greased	2.0
240.25	4.93	O-P+	0	1.478	news	beyond	whose	1.0
245.18	4.93	O-P-	0	1.302	sand	catch	truck	n/a
250.11	4.93	O-P-	1	1.311	chick	peas	drier	n/a
255.04	4.93	O-P+	1	1.035	milk	proud	crowd	2.0
259.97	4.93	O-P-	1	1.277	just	front	then	n/a
268.9	4.85	control	1	1.188	700	500	700	1.0
273.75	4.85	control	1	1.23	700	300	500	n/a
278.6	4.85	control	1	1.16	500	300	700	n/a
283.45	4.85	control	1	1.019	500	300	300	2.0
288.3	4.85	control	1	0.996	500	700	700	2.0
293.15	4.85	control	1	1.06	300	500	700	n/a
298.0	4.85	control	1	1.929	300	500	300	1.0
302.85	4.85	control	1	1.51	500	700	300	n/a
307.7	4.85	control	1	0.969	300	700	700	2.0
312.55	4.85	control	1	1.186	700	300	700	1.0
321.4	4.93	O-P-	1	1.27	deed	thaw	lamb	n/a
326.33	4.93	O-P+	1	0.946	tense	drunk	monk	2.0
331.26	4.93	O+P+	1	1.098	haze	scold	fold	2.0
336.19	4.93	O+P+	0	1.529	bite	hump	kite	1.0
341.12	4.93	O-P-	1	1.115	thug	crossed	surf	n/a
346.05	4.93	O+P+	1	0.847	food	golf	mood	1.0
350.98	4.93	O-P+	1	1.736	lace	shrink	vase	1.0
355.91	4.93	O-P+	1	1.72	poodle	lame	maim	2.0
360.84	4.93	O-P-	1	1.447	goods	core	hill	n/a
365.77	4.93	O-P-	1	1.142	fleet	loyal	urge	n/a
374.7	4.85	control	1	1.108	300	500	500	2.0
379.55	4.85	control	1	0.945	500	300	700	n/a
384.4	4.85	control	1	0.979	700	300	300	2.0
389.25	4.85	control	1	1.376	700	500	300	n/a
394.1	4.85	control	0	1.371	500	300	500	1.0
398.95	4.85	control	1	1.76	700	500	500	2.0
403.8	4.85	control	1	1.092	300	700	300	1.0
408.65	4.85	control	1	0.931	500	700	500	1.0
413.5	4.85	control	1	1.58	300	700	500	n/a
418.35	4.85	control	1	1.175	700	300	500	n/a
427.2	4.93	O-P+	1	1.507	worn	state	freight	2.0
432.13	4.93	O+P+	1	1.011	slip	draft	craft	2.0
437.06	4.93	O-P-	1	1.076	jungle	drift	mess	n/a
441.99	4.93	O+P+	1	0.989	pulse	gloss	moss	2.0
446.92	4.93	O-P+	1	1.145	chart	farm	heart	1.0
451.85	4.93	O-P-	1	1.026	crib	spine	zest	n/a
456.78	4.93	O-P+	0	1.03	perch	wilt	birch	1.0
461.71	4.93	O-P-	1	0.931	stews	toot	hark	n/a
466.64	4.93	O+P+	1	0.802	test	choice	rest	1.0
471.57	4.93	O-P-	1	1.019	teach	fund	edge	n/a
480.5	4.85	control	1	0.95	700	500	700	1.0
485.35	4.85	control	1	0.952	300	500	300	1.0
490.2	4.85	control	1	1.206	300	700	700	2.0
495.05	4.85	control	1	1.221	300	500	700	n/a
499.9	4.85	control	1	1.025	500	700	700	2.0
504.75	4.85	control	1	0.957	700	300	500	n/a
509.6	4.85	control	1	1.27	500	300	700	n/a
514.45	4.85	control	1	1.568	700	300	700	1.0
519.3	4.85	control	1	0.888	500	300	300	2.0
524.15	4.85	control	1	0.917	500	700	300	n/a
