onset	duration	trial_type	accuracy	response_time	stimA	stimB	stimC	match_posit
4.0	4.93	O-P+	1	1.139	guide	folk	smoke	2.0
8.93	4.93	O-P-	1	1.123	belt	wave	struck	n/a
13.86	4.93	O-P+	1	1.129	clone	trash	moan	1.0
18.79	4.93	O+P+	1	1.006	bench	lean	dean	2.0
23.72	4.93	O-P+	1	1.203	type	globe	ripe	1.0
28.65	4.93	O-P-	1	1.413	shacks	hinge	tong	n/a
33.58	4.93	O+P+	1	1.218	bond	brass	pond	1.0
38.51	4.93	O+P+	1	1.139	flask	slime	dime	2.0
43.44	4.93	O-P-	0	n/a	hike	lurch	loaf	n/a
48.37	4.93	O-P-	1	1.331	crook	sneeze	stout	n/a
57.3	4.85	control	1	1.398	300	500	700	n/a
62.15	4.85	control	1	1.201	500	700	300	n/a
67.0	4.85	control	1	1.049	300	500	300	1.0
71.85	4.85	control	1	1.201	700	300	500	n/a
76.7	4.85	control	1	1.144	500	300	300	2.0
81.55	4.85	control	1	1.283	700	500	700	1.0
86.4	4.85	control	1	1.846	700	300	700	1.0
91.25	4.85	control	1	0.959	300	700	700	2.0
96.1	4.85	control	1	0.939	500	700	700	2.0
100.95	4.85	control	1	1.012	500	300	700	n/a
109.8	4.93	O-P+	0	2.282	tying	cursed	thirst	2.0
114.73	4.93	O-P+	0	1.45	coil	stomp	swamp	2.0
119.66	4.93	O-P-	1	2.333	crude	damp	cops	n/a
124.59	4.93	O-P-	1	1.39	bound	roof	mark	n/a
129.52	4.93	O+P+	1	1.34	mumble	dressed	messed	2.0
134.45	4.93	O-P-	1	1.324	yours	shame	tube	n/a
139.38	4.93	O-P-	1	1.703	blank	heap	odds	n/a
144.31	4.93	O-P+	1	0.993	force	judge	source	1.0
149.24	4.93	O+P+	0	1.24	stripe	spoil	swipe	1.0
154.17	4.93	O+P+	1	2.03	crutch	chuckle	clutch	1.0
163.1	4.85	control	0	n/a	300	700	300	1.0
167.95	4.85	control	1	1.156	300	500	500	2.0
172.8	4.85	control	1	1.319	300	700	500	n/a
177.65	4.85	control	0	1.002	500	300	500	1.0
182.5	4.85	control	0	1.195	500	700	500	1.0
187.35	4.85	control	1	1.173	700	500	300	n/a
192.2	4.85	control	1	1.097	700	500	500	2.0
197.05	4.85	control	1	1.143	700	300	500	n/a
201.9	4.85	control	1	1.501	500	300	700	n/a
206.75	4.85	control	1	1.134	700	300	300	2.0
215.6	4.93	O+P+	1	1.417	bees	clothe	fees	1.0
220.53	4.93	O-P+	1	1.227	spaced	dangle	chased	1.0
225.46	4.93	O-P-	1	1.167	bull	dice	chuck	n/a
230.39	4.93	O+P+	1	1.996	ring	move	prove	2.0
235.32	4.93	O+P+	0	1.513	scald	ceased	greased	2.0
240.25	4.93	O-P+	0	1.944	news	beyond	whose	1.0
245.18	4.93	O-P-	1	1.556	sand	catch	truck	n/a
250.11	4.93	O-P-	1	1.251	chick	peas	drier	n/a
255.04	4.93	O-P+	1	1.231	milk	proud	crowd	2.0
259.97	4.93	O-P-	1	1.266	just	front	then	n/a
268.9	4.85	control	1	1.259	700	500	700	1.0
273.75	4.85	control	1	1.091	700	300	500	n/a
278.6	4.85	control	1	1.075	500	300	700	n/a
283.45	4.85	control	1	1.173	500	300	300	2.0
288.3	4.85	control	0	1.338	500	700	700	2.0
293.15	4.85	control	0	1.193	300	500	700	n/a
298.0	4.85	control	0	1.648	300	500	300	1.0
302.85	4.85	control	1	0.976	500	700	300	n/a
307.7	4.85	control	1	1.031	300	700	700	2.0
312.55	4.85	control	1	1.599	700	300	700	1.0
321.4	4.93	O-P-	1	1.328	deed	thaw	lamb	n/a
326.33	4.93	O-P+	1	1.003	tense	drunk	monk	2.0
331.26	4.93	O+P+	1	1.762	haze	scold	fold	2.0
336.19	4.93	O+P+	0	1.641	bite	hump	kite	1.0
341.12	4.93	O-P-	1	1.254	thug	crossed	surf	n/a
346.05	4.93	O+P+	0	1.31	food	golf	mood	1.0
350.98	4.93	O-P+	0	1.425	lace	shrink	vase	1.0
355.91	4.93	O-P+	0	1.893	poodle	lame	maim	2.0
360.84	4.93	O-P-	1	2.236	goods	core	hill	n/a
365.77	4.93	O-P-	1	1.165	fleet	loyal	urge	n/a
374.7	4.85	control	1	1.01	300	500	500	2.0
379.55	4.85	control	1	0.993	500	300	700	n/a
384.4	4.85	control	1	1.074	700	300	300	2.0
389.25	4.85	control	1	1.729	700	500	300	n/a
394.1	4.85	control	0	0.947	500	300	500	1.0
398.95	4.85	control	1	0.959	700	500	500	2.0
403.8	4.85	control	1	1.168	300	700	300	1.0
408.65	4.85	control	1	1.088	500	700	500	1.0
413.5	4.85	control	0	1.201	300	700	500	n/a
418.35	4.85	control	1	1.037	700	300	500	n/a
427.2	4.93	O-P+	0	n/a	worn	state	freight	2.0
432.13	4.93	O+P+	1	0.783	slip	draft	craft	2.0
437.06	4.93	O-P-	1	1.27	jungle	drift	mess	n/a
441.99	4.93	O+P+	1	0.944	pulse	gloss	moss	2.0
446.92	4.93	O-P+	1	0.931	chart	farm	heart	1.0
451.85	4.93	O-P-	1	1.13	crib	spine	zest	n/a
456.78	4.93	O-P+	1	1.256	perch	wilt	birch	1.0
461.71	4.93	O-P-	1	1.097	stews	toot	hark	n/a
466.64	4.93	O+P+	1	1.494	test	choice	rest	1.0
471.57	4.93	O-P-	1	1.487	teach	fund	edge	n/a
480.5	4.85	control	1	1.372	700	500	700	1.0
485.35	4.85	control	1	0.97	300	500	300	1.0
490.2	4.85	control	1	0.922	300	700	700	2.0
495.05	4.85	control	1	1.134	300	500	700	n/a
499.9	4.85	control	0	n/a	500	700	700	2.0
504.75	4.85	control	0	n/a	700	300	500	n/a
509.6	4.85	control	1	1.281	500	300	700	n/a
514.45	4.85	control	0	1.644	700	300	700	1.0
519.3	4.85	control	1	0.958	500	300	300	2.0
524.15	4.85	control	0	1.404	500	700	300	n/a
