onset	duration	trial_type	accuracy	response_time	stimA	stimB	stimC	match_posit
4.0	4.91	O-P-	1	1.921	spies	rasp	drown	n/a
8.91	4.91	O-P-	1	1.648	harp	cruised	runt	n/a
13.82	4.91	O+P+	1	1.2	slave	hard	yard	2.0
18.73	4.91	O-P+	1	1.266	click	psalm	prom	n/a
23.64	4.91	O-P+	1	2.032	white	guilt	height	n/a
28.55	4.91	O+P+	1	1.303	temple	spend	tend	2.0
33.46	4.91	O-P-	1	1.75	lust	junk	bats	n/a
38.37	4.91	O+P+	1	0.86	team	pure	dream	1.0
43.28	4.91	O-P-	1	1.76	stack	castle	mint	n/a
48.19	4.91	O-P+	0	n/a	half	flag	graph	n/a
57.1	4.91	control	1	0.911	\ \	\ /	\ /	2.0
62.01	4.91	control	1	1.13	\ /	/ \	/ \	2.0
66.92	4.91	control	1	1.28	/ /	/ \	\ \	n/a
71.83	4.91	control	1	1.917	/ /	/ \	/ /	1.0
76.74	4.91	control	1	1.125	\ \	\ /	/ \	n/a
81.65	4.91	control	1	2.162	\ /	/ \	\ /	1.0
86.56	4.91	control	1	1.251	\ /	/ \	/ /	n/a
91.47	4.91	control	0	1.301	/ /	/ \	/ \	2.0
96.38	4.91	control	1	1.326	/ \	/ /	\ /	n/a
101.29	4.91	control	1	1.274	\ \	\ /	\ \	1.0
110.2	4.91	O-P-	1	1.555	dung	squirm	cramp	n/a
115.11	4.91	O+P+	1	1.89	fool	cash	tool	1.0
120.02	4.91	O-P+	1	1.81	dense	crowned	hound	n/a
124.93	4.91	O-P+	1	1.502	mime	smash	rhyme	n/a
129.84	4.91	O+P+	1	1.473	ample	purse	nurse	2.0
134.75	4.91	O-P-	1	2.196	smooth	beard	uncle	n/a
139.66	4.91	O-P-	1	1.473	mold	twice	jack	n/a
144.57	4.91	O+P+	0	n/a	start	mind	part	1.0
149.48	4.91	O-P-	1	1.306	cracked	bunch	boots	n/a
154.39	4.91	O-P+	1	2.277	check	prize	rise	n/a
163.3	4.91	control	1	1.69	\ \	/ /	/ \	n/a
168.21	4.91	control	1	1.533	\ /	\ \	\ \	2.0
173.12	4.91	control	0	1.252	/ /	\ \	\ /	n/a
178.03	4.91	control	1	1.717	\ /	/ /	/ \	n/a
182.94	4.91	control	1	1.899	/ /	\ \	\ \	2.0
187.85	4.91	control	0	1.354	\ /	\ \	\ /	1.0
192.76	4.91	control	1	1.255	/ \	\ \	/ /	n/a
197.67	4.91	control	0	1.776	/ /	\ \	/ /	1.0
202.58	4.91	control	1	1.107	/ \	/ /	/ /	2.0
207.49	4.91	control	1	1.002	/ \	/ /	/ \	1.0
216.4	4.91	O-P+	1	1.552	duct	fused	bruised	n/a
221.31	4.91	O-P+	1	1.537	skim	blur	gym	n/a
226.22	4.91	O+P+	1	2.568	sawed	puke	flawed	1.0
231.13	4.91	O-P-	1	2.374	slash	zoos	snag	n/a
236.04	4.91	O-P-	1	2.003	groove	dwarf	lint	n/a
240.95	4.91	O+P+	1	1.796	stamp	glaze	blaze	2.0
245.86	4.91	O-P-	1	1.555	trust	blame	wind	n/a
250.77	4.91	O+P+	1	2.1	harm	lift	swift	2.0
255.68	4.91	O-P+	1	2.513	planned	sludge	bland	n/a
260.59	4.91	O-P-	0	n/a	racks	skit	tripe	n/a
269.5	4.91	control	1	2.548	/ \	\ \	\ \	2.0
274.41	4.91	control	1	1.328	/ /	\ /	/ \	n/a
279.32	4.91	control	1	0.82	/ /	/ \	\ \	n/a
284.23	4.91	control	1	1.157	\ \	/ /	\ \	1.0
289.14	4.91	control	1	1.842	\ /	/ \	/ /	n/a
294.05	4.91	control	1	1.098	/ /	\ /	\ /	2.0
298.96	4.91	control	1	1.461	/ /	\ /	/ /	1.0
303.87	4.91	control	1	1.434	\ \	/ \	/ /	n/a
308.78	4.91	control	1	1.465	\ \	/ /	/ /	2.0
313.69	4.91	control	1	1.963	/ \	\ \	/ \	1.0
322.6	4.91	O-P-	1	1.248	climb	spit	scar	n/a
327.51	4.91	O-P-	0	n/a	boost	woke	dutch	n/a
332.42	4.91	O+P+	1	1.704	gland	price	stand	1.0
337.33	4.91	O-P-	1	1.719	burnt	quack	barge	n/a
342.24	4.91	O+P+	1	1.882	dunk	spoof	flunk	1.0
347.15	4.91	O-P+	1	2.34	your	they	more	n/a
352.06	4.91	O-P+	1	2.112	gulp	groom	womb	n/a
356.97	4.91	O+P+	0	n/a	shell	blade	shade	2.0
361.88	4.91	O-P+	1	1.323	flick	fraud	thawed	n/a
366.79	4.91	O-P-	1	2.623	lies	gable	mall	n/a
375.7	4.91	control	0	n/a	\ \	\ /	/ \	n/a
380.61	4.91	control	1	0.971	/ /	\ \	\ /	n/a
385.52	4.91	control	1	2.11	/ \	\ /	\ /	2.0
390.43	4.91	control	1	1.017	\ \	/ \	/ \	2.0
395.34	4.91	control	1	1.114	\ \	/ /	\ /	n/a
400.25	4.91	control	1	2.363	/ \	\ /	/ \	1.0
405.16	4.91	control	0	1.163	\ \	/ \	\ \	1.0
410.07	4.91	control	1	1.1	\ /	/ /	/ /	2.0
414.98	4.91	control	1	1.951	/ \	/ /	\ /	n/a
419.89	4.91	control	0	1.694	\ /	/ /	\ /	1.0
428.8	4.91	O-P+	1	1.96	strewn	deem	swoon	n/a
433.71	4.91	O-P-	1	1.781	shore	maybe	heart	n/a
438.62	4.91	O+P+	1	2.168	pray	bloom	gloom	2.0
443.53	4.91	O-P+	1	1.631	plea	hatch	spree	n/a
448.44	4.91	O+P+	0	2.14	plump	twitch	stitch	2.0
453.35	4.91	O-P-	1	1.509	snows	pouch	clam	n/a
458.26	4.91	O-P-	1	1.99	knock	burn	grab	n/a
463.17	4.91	O+P+	1	1.613	snail	mask	frail	1.0
468.08	4.91	O-P+	0	n/a	male	mean	queen	n/a
472.99	4.91	O-P-	1	1.797	coach	tooth	rank	n/a
481.9	4.91	control	1	2.421	/ /	\ /	\ \	n/a
486.81	4.91	control	1	1.246	\ /	\ \	\ \	2.0
491.72	4.91	control	1	1.35	/ \	\ \	/ /	n/a
496.63	4.91	control	0	1.606	\ \	\ /	\ \	1.0
501.54	4.91	control	1	1.299	/ \	/ /	/ /	2.0
506.45	4.91	control	1	0.994	\ \	/ \	\ /	n/a
511.36	4.91	control	0	1.41	/ /	/ \	/ /	1.0
516.27	4.91	control	1	2.084	\ /	/ /	\ \	n/a
521.18	4.91	control	1	1.071	\ \	/ \	/ \	2.0
526.09	4.91	control	0	1.503	/ \	\ \	/ \	1.0
