onset	duration	trial_type	accuracy	response_time	stimA	stimB	stimC	match_posit
4.0	4.93	O-P+	1	0.994	guide	folk	smoke	2.0
8.93	4.93	O-P-	1	0.731	belt	wave	struck	n/a
13.86	4.93	O-P+	1	0.746	clone	trash	moan	1.0
18.79	4.93	O+P+	1	0.772	bench	lean	dean	2.0
23.72	4.93	O-P+	1	0.785	type	globe	ripe	1.0
28.65	4.93	O-P-	1	0.771	shacks	hinge	tong	n/a
33.58	4.93	O+P+	1	0.855	bond	brass	pond	1.0
38.51	4.93	O+P+	1	0.726	flask	slime	dime	2.0
43.44	4.93	O-P-	1	1.128	hike	lurch	loaf	n/a
48.37	4.93	O-P-	1	0.851	crook	sneeze	stout	n/a
57.3	4.85	control	1	0.84	300	500	700	n/a
62.15	4.85	control	0	0.93	500	700	300	n/a
67.0	4.85	control	1	0.823	300	500	300	1.0
71.85	4.85	control	1	0.803	700	300	500	n/a
76.7	4.85	control	1	0.733	500	300	300	2.0
81.55	4.85	control	1	0.772	700	500	700	1.0
86.4	4.85	control	1	1.495	700	300	700	1.0
91.25	4.85	control	1	0.782	300	700	700	2.0
96.1	4.85	control	1	0.915	500	700	700	2.0
100.95	4.85	control	1	0.972	500	300	700	n/a
109.8	4.93	O-P+	1	0.806	tying	cursed	thirst	2.0
114.73	4.93	O-P+	1	1.377	coil	stomp	swamp	2.0
119.66	4.93	O-P-	1	0.728	crude	damp	cops	n/a
124.59	4.93	O-P-	1	0.742	bound	roof	mark	n/a
129.52	4.93	O+P+	1	0.87	mumble	dressed	messed	2.0
134.45	4.93	O-P-	1	0.85	yours	shame	tube	n/a
139.38	4.93	O-P-	1	0.948	blank	heap	odds	n/a
144.31	4.93	O-P+	1	0.762	force	judge	source	1.0
149.24	4.93	O+P+	1	0.962	stripe	spoil	swipe	1.0
154.17	4.93	O+P+	1	0.85	crutch	chuckle	clutch	1.0
163.1	4.85	control	1	0.721	300	700	300	1.0
167.95	4.85	control	1	0.747	300	500	500	2.0
172.8	4.85	control	1	0.814	300	700	500	n/a
177.65	4.85	control	1	1.138	500	300	500	1.0
182.5	4.85	control	0	0.754	500	700	500	1.0
187.35	4.85	control	1	0.812	700	500	300	n/a
192.2	4.85	control	1	0.875	700	500	500	2.0
197.05	4.85	control	0	n/a	700	300	500	n/a
201.9	4.85	control	1	0.994	500	300	700	n/a
206.75	4.85	control	1	0.858	700	300	300	2.0
215.6	4.93	O+P+	1	1.007	bees	clothe	fees	1.0
220.53	4.93	O-P+	1	0.743	spaced	dangle	chased	1.0
225.46	4.93	O-P-	1	0.681	bull	dice	chuck	n/a
230.39	4.93	O+P+	1	0.722	ring	move	prove	2.0
235.32	4.93	O+P+	1	0.774	scald	ceased	greased	2.0
240.25	4.93	O-P+	1	0.926	news	beyond	whose	1.0
245.18	4.93	O-P-	1	0.79	sand	catch	truck	n/a
250.11	4.93	O-P-	1	1.021	chick	peas	drier	n/a
255.04	4.93	O-P+	1	0.86	milk	proud	crowd	2.0
259.97	4.93	O-P-	1	0.766	just	front	then	n/a
268.9	4.85	control	1	1.644	700	500	700	1.0
273.75	4.85	control	1	0.757	700	300	500	n/a
278.6	4.85	control	1	1.032	500	300	700	n/a
283.45	4.85	control	1	0.705	500	300	300	2.0
288.3	4.85	control	1	0.656	500	700	700	2.0
293.15	4.85	control	1	0.685	300	500	700	n/a
298.0	4.85	control	1	0.641	300	500	300	1.0
302.85	4.85	control	1	0.819	500	700	300	n/a
307.7	4.85	control	1	0.83	300	700	700	2.0
312.55	4.85	control	1	1.079	700	300	700	1.0
321.4	4.93	O-P-	1	0.883	deed	thaw	lamb	n/a
326.33	4.93	O-P+	1	0.954	tense	drunk	monk	2.0
331.26	4.93	O+P+	1	0.834	haze	scold	fold	2.0
336.19	4.93	O+P+	1	0.827	bite	hump	kite	1.0
341.12	4.93	O-P-	1	1.032	thug	crossed	surf	n/a
346.05	4.93	O+P+	1	0.585	food	golf	mood	1.0
350.98	4.93	O-P+	1	1.041	lace	shrink	vase	1.0
355.91	4.93	O-P+	1	0.961	poodle	lame	maim	2.0
360.84	4.93	O-P-	1	1.066	goods	core	hill	n/a
365.77	4.93	O-P-	1	1.153	fleet	loyal	urge	n/a
374.7	4.85	control	1	1.244	300	500	500	2.0
379.55	4.85	control	1	0.742	500	300	700	n/a
384.4	4.85	control	1	1.281	700	300	300	2.0
389.25	4.85	control	1	0.924	700	500	300	n/a
394.1	4.85	control	1	0.982	500	300	500	1.0
398.95	4.85	control	1	0.913	700	500	500	2.0
403.8	4.85	control	1	0.902	300	700	300	1.0
408.65	4.85	control	1	1.21	500	700	500	1.0
413.5	4.85	control	1	0.858	300	700	500	n/a
418.35	4.85	control	1	0.91	700	300	500	n/a
427.2	4.93	O-P+	1	1.0	worn	state	freight	2.0
432.13	4.93	O+P+	1	0.909	slip	draft	craft	2.0
437.06	4.93	O-P-	1	0.845	jungle	drift	mess	n/a
441.99	4.93	O+P+	1	0.85	pulse	gloss	moss	2.0
446.92	4.93	O-P+	1	0.796	chart	farm	heart	1.0
451.85	4.93	O-P-	1	0.945	crib	spine	zest	n/a
456.78	4.93	O-P+	1	0.691	perch	wilt	birch	1.0
461.71	4.93	O-P-	1	0.7	stews	toot	hark	n/a
466.64	4.93	O+P+	1	1.013	test	choice	rest	1.0
471.57	4.93	O-P-	1	0.843	teach	fund	edge	n/a
480.5	4.85	control	0	1.406	700	500	700	1.0
485.35	4.85	control	1	0.65	300	500	300	1.0
490.2	4.85	control	1	0.798	300	700	700	2.0
495.05	4.85	control	1	1.776	300	500	700	n/a
499.9	4.85	control	1	0.76	500	700	700	2.0
504.75	4.85	control	1	0.938	700	300	500	n/a
509.6	4.85	control	1	0.988	500	300	700	n/a
514.45	4.85	control	1	1.55	700	300	700	1.0
519.3	4.85	control	1	0.818	500	300	300	2.0
524.15	4.85	control	1	0.83	500	700	300	n/a
