onset	duration	trial_type	accuracy	response_time	stimA	stimB	stimC	match_posit
4.0	4.91	O-P+	0	0.922	stressed	spittle	jest	1.0
8.91	4.91	O-P-	1	1.852	shows	seep	pledge	n/a
13.82	4.91	O+P+	1	1.09	huddle	stung	rung	2.0
18.73	4.91	O-P-	1	1.199	bath	cope	leads	n/a
23.64	4.91	O-P+	1	0.783	quote	shut	throat	1.0
28.55	4.91	O-P+	1	0.933	dance	curve	serve	2.0
33.46	4.91	O-P-	1	1.011	ought	pace	king	n/a
38.37	4.91	O+P+	1	1.491	free	took	three	1.0
43.28	4.91	O+P+	1	1.026	hoop	weave	heave	2.0
48.19	4.91	O-P-	1	1.735	debt	gaze	grill	n/a
57.1	4.91	control	1	1.204	/ /	/ \	\ \	n/a
62.01	4.91	control	1	0.915	\ \	\ /	/ \	n/a
66.92	4.91	control	1	1.162	/ /	/ \	/ /	1.0
71.83	4.91	control	1	0.88	\ /	/ \	/ /	n/a
76.74	4.91	control	1	1.059	\ \	\ /	\ /	2.0
81.65	4.91	control	1	0.714	\ /	/ \	\ /	1.0
86.56	4.91	control	1	0.75	\ \	\ /	\ \	1.0
91.47	4.91	control	1	0.935	/ /	/ \	/ \	2.0
96.38	4.91	control	1	0.951	\ /	/ \	/ \	2.0
101.29	4.91	control	1	1.089	/ \	/ /	\ /	n/a
110.2	4.91	O+P+	1	0.838	blooms	prank	grooms	1.0
115.11	4.91	O-P-	1	0.878	mild	weep	drag	n/a
120.02	4.91	O-P-	1	2.45	people	girl	what	n/a
124.93	4.91	O+P+	1	0.964	wrong	round	ground	2.0
129.84	4.91	O-P+	1	1.603	clip	weed	plead	2.0
134.75	4.91	O-P-	1	1.342	shine	skip	cute	n/a
139.66	4.91	O-P-	1	1.26	town	gain	five	n/a
144.57	4.91	O-P+	1	0.971	throats	startle	quotes	1.0
149.48	4.91	O+P+	1	1.032	malt	coin	halt	1.0
154.39	4.91	O-P+	0	1.39	broth	sneer	smear	2.0
163.3	4.91	control	1	0.857	/ \	/ /	/ \	1.0
168.21	4.91	control	1	1.128	\ /	\ \	\ \	2.0
173.12	4.91	control	1	1.118	\ /	\ \	\ /	1.0
178.03	4.91	control	1	1.12	/ \	\ \	/ /	n/a
182.94	4.91	control	0	0.996	/ /	\ \	/ /	1.0
187.85	4.91	control	1	1.147	/ /	\ \	\ /	n/a
192.76	4.91	control	1	1.022	/ /	\ \	\ \	2.0
197.67	4.91	control	0	1.23	\ /	/ /	/ \	n/a
202.58	4.91	control	1	1.415	\ \	/ /	/ \	n/a
207.49	4.91	control	0	1.831	/ \	/ /	/ /	2.0
216.4	4.91	O+P+	0	1.577	squash	stacked	hacked	2.0
221.31	4.91	O-P-	1	0.863	wharf	gleam	dell	n/a
226.22	4.91	O+P+	0	n/a	black	fish	track	1.0
231.13	4.91	O+P+	1	2.158	book	floor	door	2.0
236.04	4.91	O-P+	1	1.416	clause	geese	niece	2.0
240.95	4.91	O-P-	0	1.473	blitz	vault	dump	n/a
245.86	4.91	O-P-	1	1.078	trait	vine	trance	n/a
250.77	4.91	O-P+	0	2.467	swirl	knit	pearl	1.0
255.68	4.91	O-P+	1	1.275	touch	than	such	1.0
260.59	4.91	O-P-	1	1.988	glade	clips	scrape	n/a
269.5	4.91	control	1	1.09	/ /	\ /	/ /	1.0
274.41	4.91	control	1	1.26	/ /	/ \	\ \	n/a
279.32	4.91	control	1	1.435	\ \	/ \	/ /	n/a
284.23	4.91	control	1	1.278	/ \	\ \	\ \	2.0
289.14	4.91	control	1	2.522	/ /	\ /	\ /	2.0
294.05	4.91	control	1	0.966	/ /	\ /	/ \	n/a
298.96	4.91	control	0	2.104	\ \	/ /	\ \	1.0
303.87	4.91	control	1	1.025	\ /	/ \	/ /	n/a
308.78	4.91	control	0	1.114	\ \	/ /	/ /	2.0
313.69	4.91	control	1	1.044	/ \	\ \	/ \	1.0
322.6	4.91	O-P-	1	0.898	crop	stall	gulf	n/a
327.51	4.91	O+P+	1	2.004	knee	grass	tree	1.0
332.42	4.91	O+P+	1	1.055	dull	since	prince	2.0
337.33	4.91	O-P-	1	0.926	bleak	mice	dusk	n/a
342.24	4.91	O-P-	1	0.99	math	verb	spire	n/a
347.15	4.91	O+P+	1	1.683	knob	swan	blob	1.0
352.06	4.91	O-P-	1	0.987	pound	path	drop	n/a
356.97	4.91	O-P+	1	1.365	streak	sigh	meek	1.0
361.88	4.91	O-P+	1	1.347	wasp	rinse	mince	2.0
366.79	4.91	O-P+	1	0.998	want	caught	thought	2.0
375.7	4.91	control	1	1.313	/ \	\ /	\ /	2.0
380.61	4.91	control	1	1.327	\ \	\ /	/ \	n/a
385.52	4.91	control	0	1.172	\ /	/ /	/ /	2.0
390.43	4.91	control	0	1.437	\ \	/ /	\ /	n/a
395.34	4.91	control	0	1.062	/ \	\ /	/ \	1.0
400.25	4.91	control	1	1.08	\ \	/ \	/ \	2.0
405.16	4.91	control	0	1.151	\ /	/ /	\ /	1.0
410.07	4.91	control	0	n/a	\ \	/ \	\ \	1.0
414.98	4.91	control	0	n/a	/ \	/ /	\ /	n/a
419.89	4.91	control	1	1.021	/ /	\ \	\ /	n/a
428.8	4.91	O-P-	1	0.912	thrush	hauled	torch	n/a
433.71	4.91	O+P+	0	1.59	drowned	coyote	frowned	1.0
438.62	4.91	O+P+	1	0.835	stance	scorn	sworn	2.0
443.53	4.91	O-P+	0	1.215	dealt	close	felt	1.0
448.44	4.91	O-P-	1	1.38	glow	saint	string	n/a
453.35	4.91	O-P-	1	1.069	reared	slang	flex	n/a
458.26	4.91	O-P+	0	1.011	bowl	view	whole	1.0
463.17	4.91	O+P+	1	1.186	straw	wage	rage	2.0
468.08	4.91	O-P-	1	0.846	stark	hoot	bounce	n/a
472.99	4.91	O-P+	1	1.44	budge	lurk	jerk	2.0
481.9	4.91	control	1	0.88	/ /	/ \	/ /	1.0
486.81	4.91	control	1	1.426	\ \	\ /	\ \	1.0
491.72	4.91	control	1	1.05	\ \	/ \	/ \	2.0
496.63	4.91	control	1	0.916	/ /	\ /	\ \	n/a
501.54	4.91	control	1	0.938	/ \	/ /	/ /	2.0
506.45	4.91	control	1	0.912	\ \	/ \	\ /	n/a
511.36	4.91	control	1	1.003	\ /	/ /	\ \	n/a
516.27	4.91	control	0	1.041	/ \	\ \	/ \	1.0
521.18	4.91	control	1	1.055	\ /	\ \	\ \	2.0
526.09	4.91	control	1	1.281	/ \	\ \	/ /	n/a
