onset	duration	trial_type	accuracy	response_time	stimA	stimB	stimC	match_posit
4.0	4.91	O-P+	1	2.108	stressed	spittle	jest	1.0
8.91	4.91	O-P-	1	0.915	shows	seep	pledge	n/a
13.82	4.91	O+P+	1	0.91	huddle	stung	rung	2.0
18.73	4.91	O-P-	1	0.757	bath	cope	leads	n/a
23.64	4.91	O-P+	0	1.337	quote	shut	throat	1.0
28.55	4.91	O-P+	1	1.154	dance	curve	serve	2.0
33.46	4.91	O-P-	1	1.05	ought	pace	king	n/a
38.37	4.91	O+P+	1	2.279	free	took	three	1.0
43.28	4.91	O+P+	1	0.779	hoop	weave	heave	2.0
48.19	4.91	O-P-	1	0.885	debt	gaze	grill	n/a
57.1	4.91	control	1	0.918	/ /	/ \	\ \	n/a
62.01	4.91	control	1	0.873	\ \	\ /	/ \	n/a
66.92	4.91	control	1	1.141	/ /	/ \	/ /	1.0
71.83	4.91	control	1	0.806	\ /	/ \	/ /	n/a
76.74	4.91	control	1	0.892	\ \	\ /	\ /	2.0
81.65	4.91	control	1	0.792	\ /	/ \	\ /	1.0
86.56	4.91	control	1	0.925	\ \	\ /	\ \	1.0
91.47	4.91	control	1	0.886	/ /	/ \	/ \	2.0
96.38	4.91	control	1	0.749	\ /	/ \	/ \	2.0
101.29	4.91	control	1	1.536	/ \	/ /	\ /	n/a
110.2	4.91	O+P+	1	0.971	blooms	prank	grooms	1.0
115.11	4.91	O-P-	1	0.805	mild	weep	drag	n/a
120.02	4.91	O-P-	1	1.162	people	girl	what	n/a
124.93	4.91	O+P+	1	0.909	wrong	round	ground	2.0
129.84	4.91	O-P+	1	0.937	clip	weed	plead	2.0
134.75	4.91	O-P-	1	0.824	shine	skip	cute	n/a
139.66	4.91	O-P-	1	1.599	town	gain	five	n/a
144.57	4.91	O-P+	1	1.532	throats	startle	quotes	1.0
149.48	4.91	O+P+	0	1.472	malt	coin	halt	1.0
154.39	4.91	O-P+	1	1.334	broth	sneer	smear	2.0
163.3	4.91	control	1	0.939	/ \	/ /	/ \	1.0
168.21	4.91	control	1	1.02	\ /	\ \	\ \	2.0
173.12	4.91	control	0	1.938	\ /	\ \	\ /	1.0
178.03	4.91	control	1	0.98	/ \	\ \	/ /	n/a
182.94	4.91	control	1	0.713	/ /	\ \	/ /	1.0
187.85	4.91	control	1	0.862	/ /	\ \	\ /	n/a
192.76	4.91	control	1	0.914	/ /	\ \	\ \	2.0
197.67	4.91	control	0	0.763	\ /	/ /	/ \	n/a
202.58	4.91	control	1	0.859	\ \	/ /	/ \	n/a
207.49	4.91	control	1	0.934	/ \	/ /	/ /	2.0
216.4	4.91	O+P+	1	0.928	squash	stacked	hacked	2.0
221.31	4.91	O-P-	1	1.444	wharf	gleam	dell	n/a
226.22	4.91	O+P+	1	1.826	black	fish	track	1.0
231.13	4.91	O+P+	1	0.939	book	floor	door	2.0
236.04	4.91	O-P+	1	0.987	clause	geese	niece	2.0
240.95	4.91	O-P-	1	0.938	blitz	vault	dump	n/a
245.86	4.91	O-P-	1	1.417	trait	vine	trance	n/a
250.77	4.91	O-P+	1	1.001	swirl	knit	pearl	1.0
255.68	4.91	O-P+	0	1.166	touch	than	such	1.0
260.59	4.91	O-P-	1	1.598	glade	clips	scrape	n/a
269.5	4.91	control	1	1.078	/ /	\ /	/ /	1.0
274.41	4.91	control	1	1.114	/ /	/ \	\ \	n/a
279.32	4.91	control	0	1.419	\ \	/ \	/ /	n/a
284.23	4.91	control	1	1.23	/ \	\ \	\ \	2.0
289.14	4.91	control	1	1.029	/ /	\ /	\ /	2.0
294.05	4.91	control	1	0.9	/ /	\ /	/ \	n/a
298.96	4.91	control	1	0.807	\ \	/ /	\ \	1.0
303.87	4.91	control	1	0.946	\ /	/ \	/ /	n/a
308.78	4.91	control	1	0.799	\ \	/ /	/ /	2.0
313.69	4.91	control	1	0.924	/ \	\ \	/ \	1.0
322.6	4.91	O-P-	1	1.478	crop	stall	gulf	n/a
327.51	4.91	O+P+	1	1.465	knee	grass	tree	1.0
332.42	4.91	O+P+	1	1.097	dull	since	prince	2.0
337.33	4.91	O-P-	1	1.337	bleak	mice	dusk	n/a
342.24	4.91	O-P-	1	1.076	math	verb	spire	n/a
347.15	4.91	O+P+	0	1.294	knob	swan	blob	1.0
352.06	4.91	O-P-	1	0.874	pound	path	drop	n/a
356.97	4.91	O-P+	1	1.592	streak	sigh	meek	1.0
361.88	4.91	O-P+	1	1.018	wasp	rinse	mince	2.0
366.79	4.91	O-P+	1	0.851	want	caught	thought	2.0
375.7	4.91	control	1	0.751	/ \	\ /	\ /	2.0
380.61	4.91	control	1	0.97	\ \	\ /	/ \	n/a
385.52	4.91	control	1	0.901	\ /	/ /	/ /	2.0
390.43	4.91	control	1	0.835	\ \	/ /	\ /	n/a
395.34	4.91	control	1	1.092	/ \	\ /	/ \	1.0
400.25	4.91	control	1	0.844	\ \	/ \	/ \	2.0
405.16	4.91	control	1	0.915	\ /	/ /	\ /	1.0
410.07	4.91	control	1	0.841	\ \	/ \	\ \	1.0
414.98	4.91	control	1	1.5	/ \	/ /	\ /	n/a
419.89	4.91	control	1	1.147	/ /	\ \	\ /	n/a
428.8	4.91	O-P-	1	1.045	thrush	hauled	torch	n/a
433.71	4.91	O+P+	1	0.826	drowned	coyote	frowned	1.0
438.62	4.91	O+P+	1	0.88	stance	scorn	sworn	2.0
443.53	4.91	O-P+	1	1.701	dealt	close	felt	1.0
448.44	4.91	O-P-	1	1.01	glow	saint	string	n/a
453.35	4.91	O-P-	1	0.934	reared	slang	flex	n/a
458.26	4.91	O-P+	1	1.972	bowl	view	whole	1.0
463.17	4.91	O+P+	1	0.739	straw	wage	rage	2.0
468.08	4.91	O-P-	1	0.861	stark	hoot	bounce	n/a
472.99	4.91	O-P+	1	1.218	budge	lurk	jerk	2.0
481.9	4.91	control	1	0.709	/ /	/ \	/ /	1.0
486.81	4.91	control	1	0.99	\ \	\ /	\ \	1.0
491.72	4.91	control	1	0.756	\ \	/ \	/ \	2.0
496.63	4.91	control	1	0.948	/ /	\ /	\ \	n/a
501.54	4.91	control	1	0.828	/ \	/ /	/ /	2.0
506.45	4.91	control	1	0.795	\ \	/ \	\ /	n/a
511.36	4.91	control	1	0.839	\ /	/ /	\ \	n/a
516.27	4.91	control	1	1.035	/ \	\ \	/ \	1.0
521.18	4.91	control	1	0.994	\ /	\ \	\ \	2.0
526.09	4.91	control	1	0.825	/ \	\ \	/ /	n/a
