onset	duration	trial_type	accuracy	response_time	stimA	stimB	stimC	match_posit
4.0	4.91	Unrelated	1	1.086	gravel	pants	turkey	n/a
8.91	4.91	Related	1	0.922	driver	silent	quiet	2.0
13.82	4.91	Related	1	0.714	tag	sock	shoe	2.0
18.73	4.91	Unrelated	1	0.774	able	mother	party	n/a
23.64	4.91	Related	1	1.068	throw	weapon	catch	1.0
28.55	4.91	Related	1	0.719	tablet	seafood	shrimp	2.0
33.46	4.91	Related	1	1.236	question	behind	answer	1.0
38.37	4.91	Unrelated	1	1.417	club	paid	thinking	n/a
43.28	4.91	Related	1	1.26	syrup	flown	pancakes	1.0
48.19	4.91	Unrelated	1	1.251	nursery	curtain	roar	n/a
57.1	4.91	control	1	0.899	\ /	/ \	\ /	1.0
62.01	4.91	control	1	0.809	\ /	/ \	/ \	2.0
66.92	4.91	control	1	0.868	\ \	\ /	/ \	n/a
71.83	4.91	control	1	0.909	/ /	/ \	/ /	1.0
76.74	4.91	control	1	0.769	\ /	/ \	/ /	n/a
81.65	4.91	control	1	1.568	/ \	/ /	\ /	n/a
86.56	4.91	control	1	0.75	\ \	\ /	\ \	1.0
91.47	4.91	control	1	0.791	/ /	/ \	\ \	n/a
96.38	4.91	control	1	0.876	/ /	/ \	/ \	2.0
101.29	4.91	control	1	1.005	\ \	\ /	\ /	2.0
110.2	4.91	Related	1	0.763	dog	vote	cat	1.0
115.11	4.91	Related	1	1.363	razor	drag	blade	1.0
120.02	4.91	Unrelated	1	1.388	choppy	bandit	thorn	n/a
124.93	4.91	Related	1	1.083	finish	recall	end	1.0
129.84	4.91	Unrelated	1	1.4	chunk	hoof	stitch	n/a
134.75	4.91	Unrelated	1	1.219	roller	kettle	chalk	n/a
139.66	4.91	Related	1	0.779	peanut	oyster	clam	2.0
144.57	4.91	Unrelated	1	1.489	stream	guy	rear	n/a
149.48	4.91	Related	1	0.679	priest	sketch	draw	2.0
154.39	4.91	Related	1	0.635	stinging	washer	dryer	2.0
163.3	4.91	control	1	0.871	\ \	/ /	/ \	n/a
168.21	4.91	control	1	1.146	\ /	\ \	\ \	2.0
173.12	4.91	control	1	0.983	\ /	\ \	\ /	1.0
178.03	4.91	control	1	0.83	/ /	\ \	\ /	n/a
182.94	4.91	control	1	0.79	/ /	\ \	\ \	2.0
187.85	4.91	control	1	1.691	/ \	/ /	/ /	2.0
192.76	4.91	control	1	1.355	/ /	\ \	/ /	1.0
197.67	4.91	control	1	0.934	/ \	/ /	/ \	1.0
202.58	4.91	control	1	0.921	/ \	\ \	/ /	n/a
207.49	4.91	control	1	1.068	\ /	/ /	/ \	n/a
216.4	4.91	Related	1	0.667	tenth	circus	clown	2.0
221.31	4.91	Unrelated	1	1.189	blanket	cried	split	n/a
226.22	4.91	Related	1	0.942	dipping	smudge	smear	2.0
231.13	4.91	Unrelated	1	0.942	wing	hunter	lemon	n/a
236.04	4.91	Related	1	0.991	rib	jello	pudding	2.0
240.95	4.91	Related	1	1.791	server	flashy	waiter	1.0
245.86	4.91	Related	1	1.055	dime	fuss	nickel	1.0
250.77	4.91	Unrelated	1	1.254	pillow	bounce	grinding	n/a
255.68	4.91	Related	0	1.602	left	got	right	1.0
260.59	4.91	Unrelated	1	1.376	cream	pipe	grip	n/a
269.5	4.91	control	1	0.97	/ \	\ \	\ \	2.0
274.41	4.91	control	1	1.017	/ /	\ /	/ \	n/a
279.32	4.91	control	1	1.103	/ /	/ \	\ \	n/a
284.23	4.91	control	1	1.329	\ \	/ /	\ \	1.0
289.14	4.91	control	1	0.814	\ \	/ /	/ /	2.0
294.05	4.91	control	1	0.88	/ /	\ /	\ /	2.0
298.96	4.91	control	1	0.739	\ /	/ \	/ /	n/a
303.87	4.91	control	1	1.205	/ \	\ \	/ \	1.0
308.78	4.91	control	1	1.234	/ /	\ /	/ /	1.0
313.69	4.91	control	1	0.85	\ \	/ \	/ /	n/a
322.6	4.91	Related	1	1.12	yours	arrive	mine	1.0
327.51	4.91	Unrelated	1	1.025	took	system	head	n/a
332.42	4.91	Related	1	0.649	how	little	big	2.0
337.33	4.91	Unrelated	1	1.661	scar	mister	tunnel	n/a
342.24	4.91	Unrelated	1	1.509	rich	store	pointed	n/a
347.15	4.91	Related	1	1.009	angle	achieve	goal	2.0
352.06	4.91	Related	1	1.185	racket	stealth	tennis	1.0
356.97	4.91	Unrelated	1	1.176	tangle	pretend	barker	n/a
361.88	4.91	Related	1	1.585	glue	lifting	sticky	1.0
366.79	4.91	Related	1	1.073	bush	thunder	lightning	2.0
375.7	4.91	control	1	0.856	\ \	\ /	/ \	n/a
380.61	4.91	control	1	1.037	/ \	\ /	\ /	2.0
385.52	4.91	control	1	1.293	/ \	/ /	\ /	n/a
390.43	4.91	control	1	0.838	\ /	/ /	\ /	1.0
395.34	4.91	control	1	1.035	\ \	/ \	/ \	2.0
400.25	4.91	control	1	0.891	\ \	/ /	\ /	n/a
405.16	4.91	control	1	0.872	\ \	/ \	\ \	1.0
410.07	4.91	control	1	0.936	/ \	\ /	/ \	1.0
414.98	4.91	control	1	1.114	\ /	/ /	/ /	2.0
419.89	4.91	control	1	0.614	/ /	\ \	\ /	n/a
428.8	4.91	Related	1	2.268	lend	instinct	borrow	1.0
433.71	4.91	Unrelated	1	1.301	hearing	formed	bottle	n/a
438.62	4.91	Related	1	1.532	mask	cheese	cracker	2.0
443.53	4.91	Related	1	1.046	plenty	motion	movement	2.0
448.44	4.91	Related	1	1.115	cow	silver	gold	2.0
453.35	4.91	Unrelated	1	1.419	tilting	jewel	moan	n/a
458.26	4.91	Unrelated	1	1.968	corn	pencil	blame	n/a
463.17	4.91	Related	1	0.832	thin	jack	fat	1.0
468.08	4.91	Unrelated	1	1.467	starter	pigeon	gamble	n/a
472.99	4.91	Related	1	1.605	temper	deaf	tantrum	1.0
481.9	4.91	control	1	0.916	/ \	/ /	/ /	2.0
486.81	4.91	control	1	0.794	\ \	/ \	/ \	2.0
491.72	4.91	control	1	0.791	\ \	/ \	\ /	n/a
496.63	4.91	control	1	0.84	/ /	/ \	/ /	1.0
501.54	4.91	control	1	0.794	\ /	\ \	\ \	2.0
506.45	4.91	control	1	0.804	\ /	/ /	\ \	n/a
511.36	4.91	control	1	0.98	/ \	\ \	/ /	n/a
516.27	4.91	control	1	0.911	/ \	\ \	/ \	1.0
521.18	4.91	control	1	0.884	\ \	\ /	\ \	1.0
526.09	4.91	control	1	0.874	/ /	\ /	\ \	n/a
