onset	duration	trial_type	accuracy	response_time	stimA	stimB	stimC	match_posit
4.0	4.93	O-P+	1	1.632	youth	bridge	truth	n/a
8.93	4.93	O-P+	1	1.848	june	term	firm	n/a
13.86	4.93	O+P+	1	1.539	hold	plant	cold	1.0
18.79	4.93	O-P-	1	1.359	client	flung	trick	n/a
23.72	4.93	O+P+	1	1.947	slept	cone	bone	2.0
28.65	4.93	O-P-	1	1.479	fight	look	show	n/a
33.58	4.93	O-P-	1	1.833	yelp	stirred	hilt	n/a
38.51	4.93	O+P+	1	1.129	wife	west	best	2.0
43.44	4.93	O-P-	1	1.758	flown	weave	latch	n/a
48.37	4.93	O-P+	1	2.095	beak	lance	sleek	n/a
57.3	4.85	control	1	0.852	500	700	700	2.0
62.15	4.85	control	1	0.972	300	700	700	2.0
67.0	4.85	control	1	1.331	300	500	700	n/a
71.85	4.85	control	1	1.813	300	500	300	1.0
76.7	4.85	control	0	1.116	500	300	700	n/a
81.55	4.85	control	1	0.771	700	300	700	1.0
86.4	4.85	control	1	1.143	500	700	300	n/a
91.25	4.85	control	1	0.997	500	300	300	2.0
96.1	4.85	control	1	1.424	700	300	500	n/a
100.95	4.85	control	0	1.631	700	500	700	1.0
109.8	4.93	O-P+	0	2.312	toys	lore	poise	n/a
114.73	4.93	O-P-	1	1.976	layer	scream	snap	n/a
119.66	4.93	O+P+	1	1.018	park	corn	born	2.0
124.59	4.93	O-P+	1	2.024	snug	froze	blows	n/a
129.52	4.93	O-P-	1	1.874	healed	reek	fling	n/a
134.45	4.93	O+P+	0	2.54	scanned	brisk	tanned	1.0
139.38	4.93	O-P+	1	2.251	slab	stew	glue	n/a
144.31	4.93	O+P+	1	1.078	hurled	slouch	curled	1.0
149.24	4.93	O-P-	1	1.387	strayed	pawn	carve	n/a
154.17	4.93	O-P-	1	1.153	toil	shrunk	hoist	n/a
163.1	4.85	control	1	1.055	700	500	300	n/a
167.95	4.85	control	1	0.867	700	300	300	2.0
172.8	4.85	control	1	1.586	500	300	700	n/a
177.65	4.85	control	0	1.0	700	300	500	n/a
182.5	4.85	control	1	0.86	300	500	500	2.0
187.35	4.85	control	1	1.363	300	700	300	1.0
192.2	4.85	control	1	1.305	300	700	500	n/a
197.05	4.85	control	0	1.249	500	300	500	1.0
201.9	4.85	control	1	1.082	700	500	500	2.0
206.75	4.85	control	1	1.121	500	700	500	1.0
215.6	4.93	O-P-	1	0.994	plum	wince	hick	n/a
220.53	4.93	O-P+	1	2.307	left	style	while	n/a
225.46	4.93	O+P+	1	1.859	thud	boom	stud	1.0
230.39	4.93	O-P+	1	2.033	lord	rush	ward	n/a
235.32	4.93	O-P+	1	2.213	line	fast	sign	n/a
240.25	4.93	O+P+	1	0.974	built	vote	note	2.0
245.18	4.93	O-P-	1	1.516	whim	skies	plush	n/a
250.11	4.93	O-P-	1	1.132	vents	swum	grail	n/a
255.04	4.93	O+P+	1	1.497	thank	gift	shift	2.0
259.97	4.93	O-P-	1	1.199	mine	stop	single	n/a
268.9	4.85	control	1	0.907	500	700	700	2.0
273.75	4.85	control	1	0.959	300	500	700	n/a
278.6	4.85	control	1	1.178	700	300	500	n/a
283.45	4.85	control	1	1.301	700	300	700	1.0
288.3	4.85	control	1	0.89	500	300	300	2.0
293.15	4.85	control	1	1.584	500	300	700	n/a
298.0	4.85	control	1	1.327	300	500	300	1.0
302.85	4.85	control	0	1.375	500	700	300	n/a
307.7	4.85	control	1	1.349	300	700	700	2.0
312.55	4.85	control	1	0.817	700	500	700	1.0
321.4	4.93	O-P-	1	1.105	lunge	tack	twelfth	n/a
326.33	4.93	O+P+	1	0.771	twin	moat	goat	2.0
331.26	4.93	O-P+	1	1.496	stub	coughed	loft	n/a
336.19	4.93	O-P+	1	1.9	clerk	house	work	n/a
341.12	4.93	O+P+	1	1.189	jeep	crown	sheep	1.0
346.05	4.93	O-P-	1	0.919	idle	dumb	grey	n/a
350.98	4.93	O-P-	1	1.463	scoff	bribe	splice	n/a
355.91	4.93	O+P+	0	2.489	squeeze	lump	freeze	1.0
360.84	4.93	O-P+	1	1.359	join	school	rule	n/a
365.77	4.93	O-P-	1	2.192	shrine	sting	probe	n/a
374.7	4.85	control	1	1.171	700	500	300	n/a
379.55	4.85	control	1	1.165	700	300	500	n/a
384.4	4.85	control	1	1.101	300	500	500	2.0
389.25	4.85	control	1	1.012	700	500	500	2.0
394.1	4.85	control	0	1.459	500	300	700	n/a
398.95	4.85	control	1	1.551	500	300	500	1.0
403.8	4.85	control	1	1.285	500	700	500	1.0
408.65	4.85	control	1	1.143	700	300	300	2.0
413.5	4.85	control	1	1.316	300	700	500	n/a
418.35	4.85	control	1	1.596	300	700	300	1.0
427.2	4.93	O-P-	1	1.102	baffle	whacked	grit	n/a
432.13	4.93	O-P+	1	2.075	strung	snort	quart	n/a
437.06	4.93	O-P-	1	1.651	storm	wire	guess	n/a
441.99	4.93	O+P+	1	2.068	loud	eighth	cloud	1.0
446.92	4.93	O-P-	1	1.12	lend	pill	quart	n/a
451.85	4.93	O+P+	1	1.101	glum	licked	kicked	2.0
456.78	4.93	O-P+	1	2.03	rough	vague	stuff	n/a
461.71	4.93	O-P-	1	1.253	foot	snake	thin	n/a
466.64	4.93	O+P+	1	2.515	soil	slow	grow	2.0
471.57	4.93	O-P+	1	1.988	hope	colt	soap	n/a
480.5	4.85	control	0	1.679	700	300	500	n/a
485.35	4.85	control	1	0.836	300	700	700	2.0
490.2	4.85	control	1	1.003	300	500	700	n/a
495.05	4.85	control	1	0.826	700	300	700	1.0
499.9	4.85	control	1	1.047	500	300	300	2.0
504.75	4.85	control	0	1.511	500	300	700	n/a
509.6	4.85	control	1	1.51	300	500	300	1.0
514.45	4.85	control	0	1.339	500	700	300	n/a
519.3	4.85	control	1	1.118	500	700	700	2.0
524.15	4.85	control	0	0.889	700	500	700	1.0
