onset	duration	trial_type	accuracy	response_time	stimA	stimB	stimC	match_posit
4.0	4.93	Related	1	1.236	unfit	checkers	chess	2.0
8.93	4.93	Unrelated	1	1.811	ready	trade	square	n/a
13.86	4.93	Related	1	0.746	mom	saturn	dad	1.0
18.79	4.93	Related	1	1.822	thankful	algae	fungus	2.0
23.72	4.93	Unrelated	1	1.437	forgave	glide	maiden	n/a
28.65	4.93	Related	1	1.052	quack	ivy	duck	1.0
33.58	4.93	Related	1	1.762	skunk	cuff	stink	1.0
38.51	4.93	Unrelated	1	1.691	gently	tube	ceiling	n/a
43.44	4.93	Unrelated	1	1.428	weep	charcoal	dice	n/a
48.37	4.93	Related	1	2.135	fit	murder	kill	2.0
57.3	4.85	control	1	2.452	700	500	700	1.0
62.15	4.85	control	1	0.864	500	700	700	2.0
67.0	4.85	control	0	1.236	500	700	300	n/a
71.85	4.85	control	1	1.125	300	500	300	1.0
76.7	4.85	control	1	1.286	700	300	500	n/a
81.55	4.85	control	1	1.883	500	300	700	n/a
86.4	4.85	control	1	1.149	700	300	700	1.0
91.25	4.85	control	1	1.0	300	500	700	n/a
96.1	4.85	control	1	1.501	300	700	700	2.0
100.95	4.85	control	1	1.17	500	300	300	2.0
109.8	4.93	Unrelated	0	2.557	dessert	stir	bony	n/a
114.73	4.93	Related	1	1.668	ape	beaver	monkey	1.0
119.66	4.93	Related	1	1.56	rack	cologne	perfume	2.0
124.59	4.93	Unrelated	1	0.846	lion	steam	gap	n/a
129.52	4.93	Related	1	1.82	turn	love	hate	2.0
134.45	4.93	Unrelated	0	2.059	plug	select	belly	n/a
139.38	4.93	Related	1	1.03	dish	fancy	plate	1.0
144.31	4.93	Unrelated	1	1.897	june	lord	oil	n/a
149.24	4.93	Related	1	1.202	sunny	pepper	cloudy	1.0
154.17	4.93	Related	1	1.271	cooling	teach	learn	2.0
163.1	4.85	control	1	1.179	500	300	700	n/a
167.95	4.85	control	1	1.585	300	500	500	2.0
172.8	4.85	control	1	1.166	500	300	500	1.0
177.65	4.85	control	1	1.021	700	500	300	n/a
182.5	4.85	control	1	1.978	700	500	500	2.0
187.35	4.85	control	1	1.72	700	300	300	2.0
192.2	4.85	control	0	1.275	500	700	500	1.0
197.05	4.85	control	1	1.291	300	700	300	1.0
201.9	4.85	control	1	1.274	700	300	500	n/a
206.75	4.85	control	1	1.189	300	700	500	n/a
215.6	4.93	Unrelated	1	1.764	flow	warm	teaching	n/a
220.53	4.93	Related	1	1.696	earth	sat	ground	1.0
225.46	4.93	Unrelated	1	1.255	drinking	suit	poem	n/a
230.39	4.93	Unrelated	1	1.49	flood	spell	dim	n/a
235.32	4.93	Related	1	1.14	awful	fuel	gas	2.0
240.25	4.93	Related	1	1.846	without	again	repeat	2.0
245.18	4.93	Unrelated	0	2.469	standard	heavy	wish	n/a
250.11	4.93	Related	1	1.817	web	explode	spider	1.0
255.04	4.93	Related	1	1.257	trash	hive	garbage	1.0
259.97	4.93	Related	1	1.245	law	human	person	2.0
268.9	4.85	control	1	1.002	500	300	300	2.0
273.75	4.85	control	1	1.749	300	500	700	n/a
278.6	4.85	control	1	1.291	700	300	500	n/a
283.45	4.85	control	1	1.311	300	500	300	1.0
288.3	4.85	control	1	2.898	300	700	700	2.0
293.15	4.85	control	1	1.022	500	700	700	2.0
298.0	4.85	control	1	1.059	500	700	300	n/a
302.85	4.85	control	1	1.649	700	300	700	1.0
307.7	4.85	control	0	2.075	500	300	700	n/a
312.55	4.85	control	1	1.295	700	500	700	1.0
321.4	4.93	Related	1	1.06	loud	awake	asleep	2.0
326.33	4.93	Unrelated	1	1.959	pirate	shorten	bandage	n/a
331.26	4.93	Related	1	1.378	gather	alike	collect	1.0
336.19	4.93	Related	1	1.531	spread	ship	boat	2.0
341.12	4.93	Unrelated	1	1.011	winking	soak	invent	n/a
346.05	4.93	Unrelated	1	1.526	mop	swan	tug	n/a
350.98	4.93	Related	1	1.132	gang	hide	seek	2.0
355.91	4.93	Related	1	1.685	backbone	loaf	spine	1.0
360.84	4.93	Unrelated	0	n/a	fur	youngest	compass	n/a
365.77	4.93	Related	1	1.12	film	giving	movie	1.0
374.7	4.85	control	0	1.555	500	300	700	n/a
379.55	4.85	control	1	1.075	300	500	500	2.0
384.4	4.85	control	1	1.251	300	700	500	n/a
389.25	4.85	control	1	1.133	300	700	300	1.0
394.1	4.85	control	1	1.881	700	500	500	2.0
398.95	4.85	control	1	1.508	700	500	300	n/a
403.8	4.85	control	0	1.579	500	700	500	1.0
408.65	4.85	control	1	1.304	500	300	500	1.0
413.5	4.85	control	0	1.151	700	300	300	2.0
418.35	4.85	control	1	1.764	700	300	500	n/a
427.2	4.93	Unrelated	1	2.73	sunset	creek	arrow	n/a
432.13	4.93	Related	1	1.131	cactus	veal	prickly	1.0
437.06	4.93	Related	1	1.403	spoon	canoe	fork	1.0
441.99	4.93	Unrelated	1	1.534	tackle	bacon	wipe	n/a
446.92	4.93	Related	1	1.536	founder	dig	shovel	2.0
451.85	4.93	Related	1	1.774	aim	supper	dinner	2.0
456.78	4.93	Related	1	1.085	gloom	purse	wallet	2.0
461.71	4.93	Unrelated	0	n/a	chest	handle	depth	n/a
466.64	4.93	Related	1	1.132	summer	trial	winter	1.0
471.57	4.93	Unrelated	1	1.779	joke	wealth	chart	n/a
480.5	4.85	control	1	1.839	500	700	700	2.0
485.35	4.85	control	0	1.766	700	300	500	n/a
490.2	4.85	control	0	1.411	300	700	700	2.0
495.05	4.85	control	1	0.961	700	500	700	1.0
499.9	4.85	control	1	1.182	500	300	300	2.0
504.75	4.85	control	0	1.569	500	300	700	n/a
509.6	4.85	control	1	1.521	500	700	300	n/a
514.45	4.85	control	1	1.096	700	300	700	1.0
519.3	4.85	control	1	1.257	300	500	300	1.0
524.15	4.85	control	1	1.545	300	500	700	n/a
