onset	duration	trial_type	accuracy	response_time	stimA	stimB	stimC	match_posit
4.0	4.91	O-P-	1	0.792	spies	rasp	drown	n/a
8.91	4.91	O-P-	1	1.456	harp	cruised	runt	n/a
13.82	4.91	O+P+	1	0.981	slave	hard	yard	2.0
18.73	4.91	O-P+	1	1.449	click	psalm	prom	n/a
23.64	4.91	O-P+	0	1.39	white	guilt	height	n/a
28.55	4.91	O+P+	1	1.826	temple	spend	tend	2.0
33.46	4.91	O-P-	1	1.082	lust	junk	bats	n/a
38.37	4.91	O+P+	1	0.996	team	pure	dream	1.0
43.28	4.91	O-P-	1	0.94	stack	castle	mint	n/a
48.19	4.91	O-P+	0	1.319	half	flag	graph	n/a
57.1	4.91	control	1	0.76	\ \	\ /	\ /	2.0
62.01	4.91	control	1	0.845	\ /	/ \	/ \	2.0
66.92	4.91	control	1	0.998	/ /	/ \	\ \	n/a
71.83	4.91	control	1	0.759	/ /	/ \	/ /	1.0
76.74	4.91	control	1	0.887	\ \	\ /	/ \	n/a
81.65	4.91	control	1	0.83	\ /	/ \	\ /	1.0
86.56	4.91	control	1	0.822	\ /	/ \	/ /	n/a
91.47	4.91	control	1	1.167	/ /	/ \	/ \	2.0
96.38	4.91	control	1	2.004	/ \	/ /	\ /	n/a
101.29	4.91	control	1	0.585	\ \	\ /	\ \	1.0
110.2	4.91	O-P-	1	1.067	dung	squirm	cramp	n/a
115.11	4.91	O+P+	0	1.476	fool	cash	tool	1.0
120.02	4.91	O-P+	0	1.209	dense	crowned	hound	n/a
124.93	4.91	O-P+	1	1.301	mime	smash	rhyme	n/a
129.84	4.91	O+P+	1	1.532	ample	purse	nurse	2.0
134.75	4.91	O-P-	1	1.676	smooth	beard	uncle	n/a
139.66	4.91	O-P-	1	1.139	mold	twice	jack	n/a
144.57	4.91	O+P+	1	2.414	start	mind	part	1.0
149.48	4.91	O-P-	1	1.259	cracked	bunch	boots	n/a
154.39	4.91	O-P+	0	1.911	check	prize	rise	n/a
163.3	4.91	control	1	0.926	\ \	/ /	/ \	n/a
168.21	4.91	control	1	0.867	\ /	\ \	\ \	2.0
173.12	4.91	control	1	0.789	/ /	\ \	\ /	n/a
178.03	4.91	control	1	1.841	\ /	/ /	/ \	n/a
182.94	4.91	control	1	0.692	/ /	\ \	\ \	2.0
187.85	4.91	control	1	0.68	\ /	\ \	\ /	1.0
192.76	4.91	control	1	0.765	/ \	\ \	/ /	n/a
197.67	4.91	control	1	0.842	/ /	\ \	/ /	1.0
202.58	4.91	control	1	0.746	/ \	/ /	/ /	2.0
207.49	4.91	control	1	0.648	/ \	/ /	/ \	1.0
216.4	4.91	O-P+	0	1.902	duct	fused	bruised	n/a
221.31	4.91	O-P+	1	1.288	skim	blur	gym	n/a
226.22	4.91	O+P+	1	0.862	sawed	puke	flawed	1.0
231.13	4.91	O-P-	1	1.2	slash	zoos	snag	n/a
236.04	4.91	O-P-	1	0.926	groove	dwarf	lint	n/a
240.95	4.91	O+P+	1	1.806	stamp	glaze	blaze	2.0
245.86	4.91	O-P-	1	1.912	trust	blame	wind	n/a
250.77	4.91	O+P+	1	1.288	harm	lift	swift	2.0
255.68	4.91	O-P+	1	1.574	planned	sludge	bland	n/a
260.59	4.91	O-P-	1	1.551	racks	skit	tripe	n/a
269.5	4.91	control	1	0.632	/ \	\ \	\ \	2.0
274.41	4.91	control	1	0.852	/ /	\ /	/ \	n/a
279.32	4.91	control	1	1.03	/ /	/ \	\ \	n/a
284.23	4.91	control	0	1.394	\ \	/ /	\ \	1.0
289.14	4.91	control	1	0.947	\ /	/ \	/ /	n/a
294.05	4.91	control	1	0.804	/ /	\ /	\ /	2.0
298.96	4.91	control	0	0.725	/ /	\ /	/ /	1.0
303.87	4.91	control	1	0.935	\ \	/ \	/ /	n/a
308.78	4.91	control	1	0.669	\ \	/ /	/ /	2.0
313.69	4.91	control	1	1.352	/ \	\ \	/ \	1.0
322.6	4.91	O-P-	1	0.786	climb	spit	scar	n/a
327.51	4.91	O-P-	1	1.092	boost	woke	dutch	n/a
332.42	4.91	O+P+	1	1.217	gland	price	stand	1.0
337.33	4.91	O-P-	1	0.927	burnt	quack	barge	n/a
342.24	4.91	O+P+	1	1.349	dunk	spoof	flunk	1.0
347.15	4.91	O-P+	1	1.9	your	they	more	n/a
352.06	4.91	O-P+	1	1.137	gulp	groom	womb	n/a
356.97	4.91	O+P+	1	1.029	shell	blade	shade	2.0
361.88	4.91	O-P+	0	1.26	flick	fraud	thawed	n/a
366.79	4.91	O-P-	1	1.8	lies	gable	mall	n/a
375.7	4.91	control	1	0.863	\ \	\ /	/ \	n/a
380.61	4.91	control	1	1.218	/ /	\ \	\ /	n/a
385.52	4.91	control	1	0.857	/ \	\ /	\ /	2.0
390.43	4.91	control	1	0.633	\ \	/ \	/ \	2.0
395.34	4.91	control	1	0.881	\ \	/ /	\ /	n/a
400.25	4.91	control	1	0.876	/ \	\ /	/ \	1.0
405.16	4.91	control	0	1.118	\ \	/ \	\ \	1.0
410.07	4.91	control	1	0.693	\ /	/ /	/ /	2.0
414.98	4.91	control	1	0.764	/ \	/ /	\ /	n/a
419.89	4.91	control	1	0.693	\ /	/ /	\ /	1.0
428.8	4.91	O-P+	0	1.367	strewn	deem	swoon	n/a
433.71	4.91	O-P-	1	1.002	shore	maybe	heart	n/a
438.62	4.91	O+P+	1	1.111	pray	bloom	gloom	2.0
443.53	4.91	O-P+	0	1.759	plea	hatch	spree	n/a
448.44	4.91	O+P+	1	1.371	plump	twitch	stitch	2.0
453.35	4.91	O-P-	1	1.335	snows	pouch	clam	n/a
458.26	4.91	O-P-	1	1.271	knock	burn	grab	n/a
463.17	4.91	O+P+	1	1.469	snail	mask	frail	1.0
468.08	4.91	O-P+	1	2.149	male	mean	queen	n/a
472.99	4.91	O-P-	0	2.243	coach	tooth	rank	n/a
481.9	4.91	control	1	0.705	/ /	\ /	\ \	n/a
486.81	4.91	control	1	0.581	\ /	\ \	\ \	2.0
491.72	4.91	control	1	0.798	/ \	\ \	/ /	n/a
496.63	4.91	control	1	1.038	\ \	\ /	\ \	1.0
501.54	4.91	control	1	0.665	/ \	/ /	/ /	2.0
506.45	4.91	control	1	0.89	\ \	/ \	\ /	n/a
511.36	4.91	control	1	1.072	/ /	/ \	/ /	1.0
516.27	4.91	control	1	0.737	\ /	/ /	\ \	n/a
521.18	4.91	control	1	0.697	\ \	/ \	/ \	2.0
526.09	4.91	control	0	0.68	/ \	\ \	/ \	1.0
