onset	duration	trial_type	accuracy	response_time	stimA	stimB	stimC	match_posit
4.0	4.91	Grammatical	1	0.945	divers	were	floating	n/a
8.91	4.91	Ungrammatical	1	0.829	squirrels	has	sniff	n/a
13.82	4.91	Grammatical	1	0.676	buyers	can	rent	n/a
18.73	4.91	Ungrammatical	1	0.815	wolf	could	howling	n/a
23.64	4.91	Grammatical	1	0.721	salesman	is	loud	n/a
28.55	4.91	Ungrammatical	1	0.732	cousin	is	talk	n/a
33.46	4.91	Grammatical	1	0.671	witness	is	honest	n/a
38.37	4.91	Ungrammatical	1	0.734	librarians	can	accusing	n/a
43.28	4.91	Grammatical	1	0.75	fox	was	clever	n/a
48.19	4.91	Grammatical	1	0.899	collector	was	blamed	n/a
57.1	4.91	control	1	0.637	\ /	/ \	/ \	2.0
62.01	4.91	control	1	0.727	\ /	/ \	/ /	n/a
66.92	4.91	control	1	0.679	\ \	\ /	\ \	1.0
71.83	4.91	control	1	0.645	\ \	\ /	/ \	n/a
76.74	4.91	control	1	0.664	/ /	/ \	\ \	n/a
81.65	4.91	control	1	0.705	/ /	/ \	/ \	2.0
86.56	4.91	control	1	0.637	\ /	/ \	\ /	1.0
91.47	4.91	control	1	0.674	/ /	/ \	/ /	1.0
96.38	4.91	control	1	0.639	/ \	/ /	\ /	n/a
101.29	4.91	control	1	0.706	\ \	\ /	\ /	2.0
110.2	4.91	Grammatical	1	0.663	lion	was	chained	n/a
115.11	4.91	Ungrammatical	1	0.569	beavers	has	asleep	n/a
120.02	4.91	Ungrammatical	1	0.574	alligator	are	biting	n/a
124.93	4.91	Grammatical	1	0.722	snake	was	cornered	n/a
129.84	4.91	Grammatical	1	0.766	pilots	are	landing	n/a
134.75	4.91	Ungrammatical	1	0.68	wife	are	creative	n/a
139.66	4.91	Grammatical	1	0.702	weavers	could	knit	n/a
144.57	4.91	Grammatical	1	0.792	clowns	were	silly	n/a
149.48	4.91	Ungrammatical	1	0.892	players	were	change	n/a
154.39	4.91	Grammatical	1	0.646	ladies	were	helped	n/a
163.3	4.91	control	1	0.72	/ /	\ \	\ \	2.0
168.21	4.91	control	1	0.58	/ \	/ /	/ \	1.0
173.12	4.91	control	1	0.801	\ /	\ \	\ \	2.0
178.03	4.91	control	1	0.603	/ /	\ \	\ /	n/a
182.94	4.91	control	1	1.085	/ /	\ \	/ /	1.0
187.85	4.91	control	1	0.772	/ \	/ /	/ /	2.0
192.76	4.91	control	1	0.83	/ \	\ \	/ /	n/a
197.67	4.91	control	1	0.772	\ /	\ \	\ /	1.0
202.58	4.91	control	1	0.756	\ /	/ /	/ \	n/a
207.49	4.91	control	1	0.774	\ \	/ /	/ \	n/a
216.4	4.91	Grammatical	1	0.69	janitor	has	swept	n/a
221.31	4.91	Ungrammatical	1	0.843	grooms	could	nervous	n/a
226.22	4.91	Grammatical	1	0.803	soldiers	could	attack	n/a
231.13	4.91	Ungrammatical	1	0.636	generals	was	tripping	n/a
236.04	4.91	Ungrammatical	1	0.506	voters	was	cheering	n/a
240.95	4.91	Grammatical	1	0.718	toad	could	jump	n/a
245.86	4.91	Grammatical	1	0.806	director	can	watch	n/a
250.77	4.91	Ungrammatical	1	1.026	cooks	have	tasting	n/a
255.68	4.91	Grammatical	1	1.032	musician	can	tune	n/a
260.59	4.91	Grammatical	1	0.766	rats	were	climbing	n/a
269.5	4.91	control	1	0.908	\ \	/ /	/ /	2.0
274.41	4.91	control	1	0.7	/ /	/ \	\ \	n/a
279.32	4.91	control	1	1.156	/ /	\ /	/ \	n/a
284.23	4.91	control	1	0.818	/ /	\ /	/ /	1.0
289.14	4.91	control	1	0.697	/ \	\ \	/ \	1.0
294.05	4.91	control	1	0.84	/ /	\ /	\ /	2.0
298.96	4.91	control	1	0.669	/ \	\ \	\ \	2.0
303.87	4.91	control	1	0.752	\ /	/ \	/ /	n/a
308.78	4.91	control	1	0.745	\ \	/ /	\ \	1.0
313.69	4.91	control	1	0.723	\ \	/ \	/ /	n/a
322.6	4.91	Grammatical	1	0.672	turkey	was	roasted	n/a
327.51	4.91	Grammatical	1	0.766	dove	has	perched	n/a
332.42	4.91	Ungrammatical	1	0.787	horses	have	fast	n/a
337.33	4.91	Ungrammatical	1	0.897	manager	could	serious	n/a
342.24	4.91	Grammatical	1	0.537	detectives	are	surprised	n/a
347.15	4.91	Ungrammatical	1	0.651	nephew	has	lazy	n/a
352.06	4.91	Grammatical	1	0.556	maids	can	serve	n/a
356.97	4.91	Ungrammatical	1	0.335	vets	is	examine	n/a
361.88	4.91	Grammatical	1	0.629	cat	can	drink	n/a
366.79	4.91	Grammatical	1	0.546	sisters	are	smiling	n/a
375.7	4.91	control	1	0.734	\ \	\ /	/ \	n/a
380.61	4.91	control	1	0.626	\ \	/ \	\ \	1.0
385.52	4.91	control	1	0.616	/ \	\ /	\ /	2.0
390.43	4.91	control	1	0.624	\ /	/ /	\ /	1.0
395.34	4.91	control	1	0.732	\ /	/ /	/ /	2.0
400.25	4.91	control	1	0.679	/ \	/ /	\ /	n/a
405.16	4.91	control	1	0.742	\ \	/ /	\ /	n/a
410.07	4.91	control	1	0.722	\ \	/ \	/ \	2.0
414.98	4.91	control	1	0.772	/ \	\ /	/ \	1.0
419.89	4.91	control	1	0.703	/ /	\ \	\ /	n/a
428.8	4.91	Grammatical	1	0.827	pig	is	snorting	n/a
433.71	4.91	Grammatical	1	0.673	builders	are	strong	n/a
438.62	4.91	Ungrammatical	1	0.735	experts	are	test	n/a
443.53	4.91	Grammatical	1	0.792	riders	are	exercising	n/a
448.44	4.91	Grammatical	1	0.815	coach	can	win	n/a
453.35	4.91	Grammatical	1	0.681	gardeners	are	digging	n/a
458.26	4.91	Ungrammatical	1	0.708	uncle	had	learning	n/a
463.17	4.91	Grammatical	1	0.613	strangers	were	chosen	n/a
468.08	4.91	Ungrammatical	1	0.561	turtles	was	hide	n/a
472.99	4.91	Ungrammatical	1	0.839	boxer	has	punching	n/a
481.9	4.91	control	1	0.688	/ /	/ \	/ /	1.0
486.81	4.91	control	1	0.661	\ \	/ \	\ /	n/a
491.72	4.91	control	1	0.586	\ \	\ /	\ \	1.0
496.63	4.91	control	1	0.664	\ /	\ \	\ \	2.0
501.54	4.91	control	1	0.669	/ \	\ \	/ \	1.0
506.45	4.91	control	1	0.645	/ \	/ /	/ /	2.0
511.36	4.91	control	1	0.739	/ /	\ /	\ \	n/a
516.27	4.91	control	1	0.772	\ /	/ /	\ \	n/a
521.18	4.91	control	1	0.865	\ \	/ \	/ \	2.0
526.09	4.91	control	1	0.671	/ \	\ \	/ /	n/a
