onset	duration	trial_type	accuracy	response_time	stimA	stimB	stimC	match_posit
4.0	4.93	O-P+	0	1.27	youth	bridge	truth	n/a
8.93	4.93	O-P+	0	2.888	june	term	firm	n/a
13.86	4.93	O+P+	1	1.09	hold	plant	cold	1.0
18.79	4.93	O-P-	1	1.177	client	flung	trick	n/a
23.72	4.93	O+P+	1	1.064	slept	cone	bone	2.0
28.65	4.93	O-P-	1	1.858	fight	look	show	n/a
33.58	4.93	O-P-	1	1.529	yelp	stirred	hilt	n/a
38.51	4.93	O+P+	1	1.209	wife	west	best	2.0
43.44	4.93	O-P-	1	1.236	flown	weave	latch	n/a
48.37	4.93	O-P+	0	1.394	beak	lance	sleek	n/a
57.3	4.85	control	1	1.174	500	700	700	2.0
62.15	4.85	control	1	2.108	300	700	700	2.0
67.0	4.85	control	1	1.19	300	500	700	n/a
71.85	4.85	control	1	1.439	300	500	300	1.0
76.7	4.85	control	1	1.226	500	300	700	n/a
81.55	4.85	control	1	0.986	700	300	700	1.0
86.4	4.85	control	1	1.214	500	700	300	n/a
91.25	4.85	control	1	1.093	500	300	300	2.0
96.1	4.85	control	1	1.799	700	300	500	n/a
100.95	4.85	control	1	1.038	700	500	700	1.0
109.8	4.93	O-P+	1	2.109	toys	lore	poise	n/a
114.73	4.93	O-P-	1	1.027	layer	scream	snap	n/a
119.66	4.93	O+P+	1	1.442	park	corn	born	2.0
124.59	4.93	O-P+	0	2.09	snug	froze	blows	n/a
129.52	4.93	O-P-	1	1.345	healed	reek	fling	n/a
134.45	4.93	O+P+	1	1.299	scanned	brisk	tanned	1.0
139.38	4.93	O-P+	0	1.052	slab	stew	glue	n/a
144.31	4.93	O+P+	1	1.252	hurled	slouch	curled	1.0
149.24	4.93	O-P-	1	1.264	strayed	pawn	carve	n/a
154.17	4.93	O-P-	1	1.385	toil	shrunk	hoist	n/a
163.1	4.85	control	1	1.154	700	500	300	n/a
167.95	4.85	control	1	1.124	700	300	300	2.0
172.8	4.85	control	1	1.223	500	300	700	n/a
177.65	4.85	control	1	1.901	700	300	500	n/a
182.5	4.85	control	1	1.162	300	500	500	2.0
187.35	4.85	control	1	1.535	300	700	300	1.0
192.2	4.85	control	1	1.313	300	700	500	n/a
197.05	4.85	control	1	1.572	500	300	500	1.0
201.9	4.85	control	1	1.064	700	500	500	2.0
206.75	4.85	control	1	2.225	500	700	500	1.0
215.6	4.93	O-P-	1	1.025	plum	wince	hick	n/a
220.53	4.93	O-P+	1	1.418	left	style	while	n/a
225.46	4.93	O+P+	1	1.546	thud	boom	stud	1.0
230.39	4.93	O-P+	0	1.098	lord	rush	ward	n/a
235.32	4.93	O-P+	0	1.182	line	fast	sign	n/a
240.25	4.93	O+P+	1	1.177	built	vote	note	2.0
245.18	4.93	O-P-	1	1.069	whim	skies	plush	n/a
250.11	4.93	O-P-	1	1.367	vents	swum	grail	n/a
255.04	4.93	O+P+	1	1.293	thank	gift	shift	2.0
259.97	4.93	O-P-	1	1.228	mine	stop	single	n/a
268.9	4.85	control	1	1.326	500	700	700	2.0
273.75	4.85	control	1	1.161	300	500	700	n/a
278.6	4.85	control	1	1.401	700	300	500	n/a
283.45	4.85	control	1	1.188	700	300	700	1.0
288.3	4.85	control	1	1.226	500	300	300	2.0
293.15	4.85	control	1	1.067	500	300	700	n/a
298.0	4.85	control	1	1.641	300	500	300	1.0
302.85	4.85	control	1	1.419	500	700	300	n/a
307.7	4.85	control	1	1.192	300	700	700	2.0
312.55	4.85	control	1	1.133	700	500	700	1.0
321.4	4.93	O-P-	1	1.053	lunge	tack	twelfth	n/a
326.33	4.93	O+P+	1	1.11	twin	moat	goat	2.0
331.26	4.93	O-P+	1	2.126	stub	coughed	loft	n/a
336.19	4.93	O-P+	0	0.969	clerk	house	work	n/a
341.12	4.93	O+P+	0	2.593	jeep	crown	sheep	1.0
346.05	4.93	O-P-	1	1.173	idle	dumb	grey	n/a
350.98	4.93	O-P-	1	1.178	scoff	bribe	splice	n/a
355.91	4.93	O+P+	1	1.379	squeeze	lump	freeze	1.0
360.84	4.93	O-P+	1	1.621	join	school	rule	n/a
365.77	4.93	O-P-	1	1.639	shrine	sting	probe	n/a
374.7	4.85	control	1	1.096	700	500	300	n/a
379.55	4.85	control	1	1.362	700	300	500	n/a
384.4	4.85	control	1	1.223	300	500	500	2.0
389.25	4.85	control	1	1.705	700	500	500	2.0
394.1	4.85	control	1	1.978	500	300	700	n/a
398.95	4.85	control	1	1.364	500	300	500	1.0
403.8	4.85	control	1	1.838	500	700	500	1.0
408.65	4.85	control	1	1.116	700	300	300	2.0
413.5	4.85	control	1	1.112	300	700	500	n/a
418.35	4.85	control	1	1.306	300	700	300	1.0
427.2	4.93	O-P-	1	1.006	baffle	whacked	grit	n/a
432.13	4.93	O-P+	0	1.053	strung	snort	quart	n/a
437.06	4.93	O-P-	1	1.072	storm	wire	guess	n/a
441.99	4.93	O+P+	1	1.589	loud	eighth	cloud	1.0
446.92	4.93	O-P-	1	0.934	lend	pill	quart	n/a
451.85	4.93	O+P+	1	1.402	glum	licked	kicked	2.0
456.78	4.93	O-P+	1	2.077	rough	vague	stuff	n/a
461.71	4.93	O-P-	1	1.338	foot	snake	thin	n/a
466.64	4.93	O+P+	1	1.921	soil	slow	grow	2.0
471.57	4.93	O-P+	1	1.79	hope	colt	soap	n/a
480.5	4.85	control	1	1.228	700	300	500	n/a
485.35	4.85	control	1	1.393	300	700	700	2.0
490.2	4.85	control	1	1.44	300	500	700	n/a
495.05	4.85	control	1	1.481	700	300	700	1.0
499.9	4.85	control	1	1.308	500	300	300	2.0
504.75	4.85	control	1	1.328	500	300	700	n/a
509.6	4.85	control	1	1.321	300	500	300	1.0
514.45	4.85	control	1	1.49	500	700	300	n/a
519.3	4.85	control	1	1.748	500	700	700	2.0
524.15	4.85	control	0	1.526	700	500	700	1.0
