onset	duration	trial_type	accuracy	response_time	stimA	stimB	stimC	match_posit
4.0	4.93	O-P+	1	1.064	guide	folk	smoke	2.0
8.93	4.93	O-P-	1	0.677	belt	wave	struck	n/a
13.86	4.93	O-P+	1	0.643	clone	trash	moan	1.0
18.79	4.93	O+P+	1	0.563	bench	lean	dean	2.0
23.72	4.93	O-P+	1	0.879	type	globe	ripe	1.0
28.65	4.93	O-P-	1	0.804	shacks	hinge	tong	n/a
33.58	4.93	O+P+	1	0.777	bond	brass	pond	1.0
38.51	4.93	O+P+	1	0.692	flask	slime	dime	2.0
43.44	4.93	O-P-	1	0.677	hike	lurch	loaf	n/a
48.37	4.93	O-P-	1	0.843	crook	sneeze	stout	n/a
57.3	4.85	control	1	0.8	300	500	700	n/a
62.15	4.85	control	1	0.562	500	700	300	n/a
67.0	4.85	control	1	0.86	300	500	300	1.0
71.85	4.85	control	1	0.616	700	300	500	n/a
76.7	4.85	control	1	0.836	500	300	300	2.0
81.55	4.85	control	1	0.468	700	500	700	1.0
86.4	4.85	control	1	0.749	700	300	700	1.0
91.25	4.85	control	1	0.756	300	700	700	2.0
96.1	4.85	control	1	0.673	500	700	700	2.0
100.95	4.85	control	1	0.881	500	300	700	n/a
109.8	4.93	O-P+	1	0.666	tying	cursed	thirst	2.0
114.73	4.93	O-P+	1	1.063	coil	stomp	swamp	2.0
119.66	4.93	O-P-	1	0.694	crude	damp	cops	n/a
124.59	4.93	O-P-	1	0.626	bound	roof	mark	n/a
129.52	4.93	O+P+	1	0.952	mumble	dressed	messed	2.0
134.45	4.93	O-P-	1	0.595	yours	shame	tube	n/a
139.38	4.93	O-P-	1	0.673	blank	heap	odds	n/a
144.31	4.93	O-P+	1	0.706	force	judge	source	1.0
149.24	4.93	O+P+	1	1.135	stripe	spoil	swipe	1.0
154.17	4.93	O+P+	1	1.183	crutch	chuckle	clutch	1.0
163.1	4.85	control	1	0.793	300	700	300	1.0
167.95	4.85	control	1	0.589	300	500	500	2.0
172.8	4.85	control	1	0.814	300	700	500	n/a
177.65	4.85	control	1	0.69	500	300	500	1.0
182.5	4.85	control	1	0.79	500	700	500	1.0
187.35	4.85	control	1	0.668	700	500	300	n/a
192.2	4.85	control	1	0.688	700	500	500	2.0
197.05	4.85	control	1	0.622	700	300	500	n/a
201.9	4.85	control	1	0.707	500	300	700	n/a
206.75	4.85	control	1	0.759	700	300	300	2.0
215.6	4.93	O+P+	1	0.806	bees	clothe	fees	1.0
220.53	4.93	O-P+	1	0.882	spaced	dangle	chased	1.0
225.46	4.93	O-P-	1	0.706	bull	dice	chuck	n/a
230.39	4.93	O+P+	1	1.183	ring	move	prove	2.0
235.32	4.93	O+P+	1	0.908	scald	ceased	greased	2.0
240.25	4.93	O-P+	1	0.979	news	beyond	whose	1.0
245.18	4.93	O-P-	1	0.608	sand	catch	truck	n/a
250.11	4.93	O-P-	1	0.693	chick	peas	drier	n/a
255.04	4.93	O-P+	1	0.882	milk	proud	crowd	2.0
259.97	4.93	O-P-	1	0.574	just	front	then	n/a
268.9	4.85	control	1	0.667	700	500	700	1.0
273.75	4.85	control	1	0.735	700	300	500	n/a
278.6	4.85	control	1	0.889	500	300	700	n/a
283.45	4.85	control	1	0.777	500	300	300	2.0
288.3	4.85	control	1	0.558	500	700	700	2.0
293.15	4.85	control	1	0.656	300	500	700	n/a
298.0	4.85	control	1	0.705	300	500	300	1.0
302.85	4.85	control	1	0.683	500	700	300	n/a
307.7	4.85	control	1	0.755	300	700	700	2.0
312.55	4.85	control	1	0.738	700	300	700	1.0
321.4	4.93	O-P-	1	0.718	deed	thaw	lamb	n/a
326.33	4.93	O-P+	1	0.807	tense	drunk	monk	2.0
331.26	4.93	O+P+	1	0.689	haze	scold	fold	2.0
336.19	4.93	O+P+	1	1.158	bite	hump	kite	1.0
341.12	4.93	O-P-	1	0.77	thug	crossed	surf	n/a
346.05	4.93	O+P+	1	0.461	food	golf	mood	1.0
350.98	4.93	O-P+	1	0.547	lace	shrink	vase	1.0
355.91	4.93	O-P+	0	1.0	poodle	lame	maim	2.0
360.84	4.93	O-P-	1	0.79	goods	core	hill	n/a
365.77	4.93	O-P-	1	0.561	fleet	loyal	urge	n/a
374.7	4.85	control	1	0.623	300	500	500	2.0
379.55	4.85	control	1	0.737	500	300	700	n/a
384.4	4.85	control	1	0.804	700	300	300	2.0
389.25	4.85	control	1	0.695	700	500	300	n/a
394.1	4.85	control	1	0.619	500	300	500	1.0
398.95	4.85	control	1	0.673	700	500	500	2.0
403.8	4.85	control	1	0.636	300	700	300	1.0
408.65	4.85	control	1	1.21	500	700	500	1.0
413.5	4.85	control	1	0.752	300	700	500	n/a
418.35	4.85	control	1	0.728	700	300	500	n/a
427.2	4.93	O-P+	1	1.02	worn	state	freight	2.0
432.13	4.93	O+P+	1	0.749	slip	draft	craft	2.0
437.06	4.93	O-P-	1	0.646	jungle	drift	mess	n/a
441.99	4.93	O+P+	1	0.512	pulse	gloss	moss	2.0
446.92	4.93	O-P+	1	0.68	chart	farm	heart	1.0
451.85	4.93	O-P-	1	0.734	crib	spine	zest	n/a
456.78	4.93	O-P+	1	0.947	perch	wilt	birch	1.0
461.71	4.93	O-P-	1	0.653	stews	toot	hark	n/a
466.64	4.93	O+P+	1	0.691	test	choice	rest	1.0
471.57	4.93	O-P-	1	0.724	teach	fund	edge	n/a
480.5	4.85	control	1	0.836	700	500	700	1.0
485.35	4.85	control	1	0.803	300	500	300	1.0
490.2	4.85	control	1	0.641	300	700	700	2.0
495.05	4.85	control	1	0.695	300	500	700	n/a
499.9	4.85	control	1	0.764	500	700	700	2.0
504.75	4.85	control	1	0.902	700	300	500	n/a
509.6	4.85	control	1	0.749	500	300	700	n/a
514.45	4.85	control	1	0.553	700	300	700	1.0
519.3	4.85	control	1	0.815	500	300	300	2.0
524.15	4.85	control	1	0.868	500	700	300	n/a
