onset	duration	trial_type	accuracy	response_time	stimA	stimB	stimC	match_posit
4.0	4.93	O-P+	1	1.506	guide	folk	smoke	2.0
8.93	4.93	O-P-	1	0.964	belt	wave	struck	n/a
13.86	4.93	O-P+	1	1.131	clone	trash	moan	1.0
18.79	4.93	O+P+	1	0.734	bench	lean	dean	2.0
23.72	4.93	O-P+	1	1.811	type	globe	ripe	1.0
28.65	4.93	O-P-	1	1.23	shacks	hinge	tong	n/a
33.58	4.93	O+P+	1	0.979	bond	brass	pond	1.0
38.51	4.93	O+P+	1	0.846	flask	slime	dime	2.0
43.44	4.93	O-P-	1	0.928	hike	lurch	loaf	n/a
48.37	4.93	O-P-	1	1.34	crook	sneeze	stout	n/a
57.3	4.85	control	1	1.116	300	500	700	n/a
62.15	4.85	control	1	1.321	500	700	300	n/a
67.0	4.85	control	1	1.144	300	500	300	1.0
71.85	4.85	control	1	1.05	700	300	500	n/a
76.7	4.85	control	1	0.978	500	300	300	2.0
81.55	4.85	control	1	1.595	700	500	700	1.0
86.4	4.85	control	1	1.204	700	300	700	1.0
91.25	4.85	control	1	1.026	300	700	700	2.0
96.1	4.85	control	1	1.029	500	700	700	2.0
100.95	4.85	control	0	1.114	500	300	700	n/a
109.8	4.93	O-P+	1	0.986	tying	cursed	thirst	2.0
114.73	4.93	O-P+	1	1.097	coil	stomp	swamp	2.0
119.66	4.93	O-P-	1	1.149	crude	damp	cops	n/a
124.59	4.93	O-P-	1	1.095	bound	roof	mark	n/a
129.52	4.93	O+P+	1	0.961	mumble	dressed	messed	2.0
134.45	4.93	O-P-	1	1.298	yours	shame	tube	n/a
139.38	4.93	O-P-	1	1.158	blank	heap	odds	n/a
144.31	4.93	O-P+	0	2.12	force	judge	source	1.0
149.24	4.93	O+P+	1	1.481	stripe	spoil	swipe	1.0
154.17	4.93	O+P+	1	1.702	crutch	chuckle	clutch	1.0
163.1	4.85	control	1	1.347	300	700	300	1.0
167.95	4.85	control	1	1.118	300	500	500	2.0
172.8	4.85	control	1	1.375	300	700	500	n/a
177.65	4.85	control	0	1.715	500	300	500	1.0
182.5	4.85	control	1	1.379	500	700	500	1.0
187.35	4.85	control	1	1.084	700	500	300	n/a
192.2	4.85	control	1	0.938	700	500	500	2.0
197.05	4.85	control	1	1.596	700	300	500	n/a
201.9	4.85	control	0	1.157	500	300	700	n/a
206.75	4.85	control	1	1.104	700	300	300	2.0
215.6	4.93	O+P+	1	1.085	bees	clothe	fees	1.0
220.53	4.93	O-P+	0	2.352	spaced	dangle	chased	1.0
225.46	4.93	O-P-	1	1.069	bull	dice	chuck	n/a
230.39	4.93	O+P+	1	1.209	ring	move	prove	2.0
235.32	4.93	O+P+	1	0.991	scald	ceased	greased	2.0
240.25	4.93	O-P+	1	1.649	news	beyond	whose	1.0
245.18	4.93	O-P-	1	1.746	sand	catch	truck	n/a
250.11	4.93	O-P-	1	0.933	chick	peas	drier	n/a
255.04	4.93	O-P+	1	0.98	milk	proud	crowd	2.0
259.97	4.93	O-P-	1	1.291	just	front	then	n/a
268.9	4.85	control	1	1.055	700	500	700	1.0
273.75	4.85	control	1	1.073	700	300	500	n/a
278.6	4.85	control	0	1.206	500	300	700	n/a
283.45	4.85	control	1	1.235	500	300	300	2.0
288.3	4.85	control	1	0.954	500	700	700	2.0
293.15	4.85	control	1	1.213	300	500	700	n/a
298.0	4.85	control	1	1.347	300	500	300	1.0
302.85	4.85	control	0	1.123	500	700	300	n/a
307.7	4.85	control	1	0.911	300	700	700	2.0
312.55	4.85	control	1	0.898	700	300	700	1.0
321.4	4.93	O-P-	1	0.948	deed	thaw	lamb	n/a
326.33	4.93	O-P+	1	0.906	tense	drunk	monk	2.0
331.26	4.93	O+P+	1	0.774	haze	scold	fold	2.0
336.19	4.93	O+P+	1	1.725	bite	hump	kite	1.0
341.12	4.93	O-P-	1	1.146	thug	crossed	surf	n/a
346.05	4.93	O+P+	1	1.752	food	golf	mood	1.0
350.98	4.93	O-P+	0	2.37	lace	shrink	vase	1.0
355.91	4.93	O-P+	1	1.705	poodle	lame	maim	2.0
360.84	4.93	O-P-	1	1.157	goods	core	hill	n/a
365.77	4.93	O-P-	1	1.172	fleet	loyal	urge	n/a
374.7	4.85	control	1	0.872	300	500	500	2.0
379.55	4.85	control	1	1.322	500	300	700	n/a
384.4	4.85	control	1	0.905	700	300	300	2.0
389.25	4.85	control	1	1.488	700	500	300	n/a
394.1	4.85	control	1	1.455	500	300	500	1.0
398.95	4.85	control	1	0.913	700	500	500	2.0
403.8	4.85	control	1	1.13	300	700	300	1.0
408.65	4.85	control	1	1.282	500	700	500	1.0
413.5	4.85	control	0	1.291	300	700	500	n/a
418.35	4.85	control	1	1.389	700	300	500	n/a
427.2	4.93	O-P+	1	1.025	worn	state	freight	2.0
432.13	4.93	O+P+	1	1.173	slip	draft	craft	2.0
437.06	4.93	O-P-	1	1.234	jungle	drift	mess	n/a
441.99	4.93	O+P+	1	0.793	pulse	gloss	moss	2.0
446.92	4.93	O-P+	1	1.689	chart	farm	heart	1.0
451.85	4.93	O-P-	1	1.265	crib	spine	zest	n/a
456.78	4.93	O-P+	1	1.854	perch	wilt	birch	1.0
461.71	4.93	O-P-	1	1.114	stews	toot	hark	n/a
466.64	4.93	O+P+	1	2.05	test	choice	rest	1.0
471.57	4.93	O-P-	1	2.016	teach	fund	edge	n/a
480.5	4.85	control	1	0.869	700	500	700	1.0
485.35	4.85	control	1	1.047	300	500	300	1.0
490.2	4.85	control	1	0.988	300	700	700	2.0
495.05	4.85	control	1	1.062	300	500	700	n/a
499.9	4.85	control	1	0.819	500	700	700	2.0
504.75	4.85	control	0	1.407	700	300	500	n/a
509.6	4.85	control	0	0.968	500	300	700	n/a
514.45	4.85	control	1	0.968	700	300	700	1.0
519.3	4.85	control	1	0.925	500	300	300	2.0
524.15	4.85	control	1	1.1	500	700	300	n/a
